acc_x, acc_y, angular_z, stamp, 
0.007959021339902646, -0.28117725580093417, -0.5001082181392481, 134788000000, 
-0.11331517734926871, -0.016564135683320227, -0.500230590559486, 134793000000, 
-0.046725148983235903, -0.14498197863507442, -0.5005499670157332, 134798000000, 
-0.07188841678514278, -0.1385799578608122, -0.5002887589020819, 134803000000, 
-0.09338751102237802, -0.14166441663372945, -0.5002044317741832, 134808000000, 
-0.007479663085509293, -0.2608310480673584, -0.4997856218362203, 134813000000, 
-0.1341766931533864, -0.013292397138910275, -0.4997177194057057, 134818000000, 
0.0055583129521864436, -0.2899362670636442, -0.4999715011729058, 134823000000, 
-0.08320721927271058, -0.02808854244871858, -0.4996481621590783, 134828000000, 
-0.03550665829916122, -0.18300216094604616, -0.5000649410183294, 134833000000, 
0.039164037321813006, -0.26890312466875366, -0.4992313696611574, 134838000000, 
-0.13916552772373117, 0.0011841154533430778, -0.49981368452034713, 134843000000, 
-0.015634433961663384, -0.29634169637579005, -0.4997374810234041, 134848000000, 
-0.06950331501355292, -0.00959692923119897, -0.49974683529539515, 134853000000, 
-0.05279178932896922, -0.18098225894320316, -0.5001266037195835, 134858000000, 
-0.011049468835851834, -0.27990378145471106, -0.4998950411967766, 134863000000, 
-0.10449098853561616, 0.0015310222110012563, -0.500047741151847, 134868000000, 
-0.04008565342687068, -0.1607883995715683, -0.5007954074769524, 134873000000, 
0.017073297622724908, -0.32757443897380806, -0.49951572795109744, 134878000000, 
-0.09692249775571357, -0.01502158104481719, -0.5003011448204789, 134883000000, 
-0.028372711081078462, -0.26562473897103156, -0.5002418253754236, 134888000000, 
-0.08448463407816628, -0.022266645828783245, -0.49979799100263245, 134893000000, 
-0.062445319821781205, -0.1597537044827622, -0.4995333251744707, 134898000000, 
-0.03748758768798795, -0.17370156391090744, -0.4999309109440076, 134903000000, 
0.013451592631129598, -0.26240341365816716, -0.49997854904950434, 134908000000, 
-0.1279027136561437, -0.009284674047938115, -0.4999416259423968, 134913000000, 
-0.05323146069881176, -0.15855543670508498, -0.5001532557253493, 134918000000, 
-0.0528549968576111, -0.17195273132296868, -0.49989093489529235, 134923000000, 
-0.09451667816143716, -0.15983546604259166, -0.5003027447396176, 134928000000, 
-0.016039598286142053, -0.24473349709197428, -0.5001288325344714, 134933000000, 
-0.10734612177303719, -0.03495536975635075, -0.49989816917402735, 134938000000, 
-0.06004186808150192, -0.15348335463904997, -0.5003391327445258, 134943000000, 
-0.009220558276014666, -0.25075276147285414, -0.49998380672750076, 134948000000, 
-0.06392543153554545, -0.06448291752457122, -0.49983293916522725, 134953000000, 
-0.04349102586378367, -0.1688232406908752, -0.5000670909306355, 134958000000, 
-0.005164703277081471, -0.27571455621688, -0.4999865401720299, 134963000000, 
-0.11835691133557263, -0.027100237580314292, -0.49996433089451525, 134968000000, 
-0.05640696579463483, -0.13363811064088632, -0.4999289119598715, 134973000000, 
0.018076216011819978, -0.260206303505332, -0.4997952741683325, 134978000000, 
-0.10559825897780153, -0.02503358480885966, -0.500248219231219, 134983000000, 
-0.05137706604295284, -0.1295003837000298, -0.5003062316234885, 134988000000, 
-0.017298720801816075, -0.13211737213468, -0.49966519056015124, 134993000000, 
-0.0651711028084658, -0.144412727402265, -0.49989791753051066, 134998000000, 
-0.0259358804190625, -0.14891114161542277, -0.5001787588499269, 135003000000, 
-0.029774243583956243, -0.16185472713050578, -0.4995859413283237, 135008000000, 
-0.06367602715476874, -0.15675588469525886, -0.49982873308082876, 135013000000, 
-0.05372928843400807, -0.1730957012148745, -0.5001036515609043, 135018000000, 
-0.026899375553532705, -0.1506621944189547, -0.4997870368542916, 135023000000, 
-0.0636037125780483, -0.12933678576969868, -0.4998707529178943, 135028000000, 
-0.024093863864955985, -0.16548255232646347, -0.500349214510302, 135033000000, 
-0.05882967915497956, -0.14350520247109613, -0.499296543565831, 135038000000, 
-0.06352995472090603, -0.14757508663922086, -0.5000580674053752, 135043000000, 
-0.03348015258711186, -0.16496894041225235, -0.500177082478349, 135048000000, 
-0.04208935325903273, -0.12390180788915618, -0.5000034394396776, 135053000000, 
-0.07389257704877447, -0.1722884200139961, -0.5000748656182927, 135058000000, 
-0.031340258883122134, -0.25248593735723934, -0.499860086287111, 135063000000, 
-0.07301145545999682, -0.059162670686741636, -0.4997876147355885, 135068000000, 
-0.03664982171495877, -0.15567140083144548, -0.49997623866930613, 135075000000, 
0.005485670149018573, -0.2526110851330992, -0.4998874898337118, 135080000000, 
-0.06341175863657716, -0.018540904021936946, -0.5000626498976646, 135085000000, 
-0.047682134964601844, -0.13917644947302504, -0.5000347154172381, 135090000000, 
-0.03538259700809257, -0.13827169861068306, -0.49940806243756913, 135095000000, 
-0.06412479128495566, -0.13844435820293885, -0.49978568994565786, 135100000000, 
-0.017537307710010153, -0.28397404443093016, -0.4998503940968367, 135105000000, 
-0.08847301601103617, -0.03748806839323057, -0.49986177161594236, 135110000000, 
-0.042628506978132606, -0.1677383933515406, -0.4998059140896552, 135115000000, 
-0.005459561750174497, -0.26067395634480367, -0.4999897019868955, 135120000000, 
-0.10303821451605391, -0.0037073775146450917, -0.4998440537565197, 135125000000, 
-0.053440060508197516, -0.16058744615929693, -0.500013566383014, 135130000000, 
-0.06348578897467197, -0.10661465182502877, -0.49959611730307235, 135135000000, 
-0.05238685698771282, -0.16835324280313174, -0.5004714077845679, 135140000000, 
-0.004650798932791418, -0.3014481586199239, -0.50037709848503, 135145000000, 
-0.10476775239586814, 7.176284226948978e-05, -0.49990444763000147, 135150000000, 
-0.04772724279546996, -0.2097535969102773, -0.5000607775042653, 135155000000, 
-0.029526344988748628, -0.26719920563724725, -0.500276857458484, 135160000000, 
-0.10033661655360321, -0.014175830987713054, -0.49963725837206524, 135165000000, 
-0.06337748180523727, -0.16225692684744664, -0.5002780825995338, 135170000000, 
-0.019480185690113512, -0.25978552132381855, -0.4997249580591249, 135175000000, 
-0.11926102769663902, -0.021979025744564746, -0.49991846715017135, 135180000000, 
-0.07470461741997206, -0.15246895461466417, -0.49972818674730035, 135185000000, 
-0.034291500406929756, -0.22253748952325436, -0.5000997751952064, 135190000000, 
-0.09611312933398612, -0.04591749330659415, -0.49987259266675416, 135195000000, 
-0.0761070674850885, -0.18290483012514092, -0.5001782028288556, 135200000000, 
-0.028243054008744044, -0.23962707229291216, -0.49970423985722723, 135205000000, 
-0.11050661588329841, -0.02322823594353538, -0.5001765747664644, 135210000000, 
-0.07502931590540515, -0.1624095924409743, -0.5004093700611797, 135215000000, 
-0.005092465055778509, -0.25844865080512947, -0.4995860140876136, 135220000000, 
-0.10696412521694676, -0.047259516677230114, -0.5001467905208711, 135225000000, 
-0.05754300242469171, -0.1546808813900682, -0.5001518798926293, 135230000000, 
-0.0008152253410581532, -0.28353717225741415, -0.500052232099707, 135235000000, 
-0.10688377242621108, -0.005078961018616254, -0.5005077308295652, 135240000000, 
-0.05557110081812147, -0.1636508678318365, -0.5000431272410153, 135245000000, 
-0.04645981369308309, -0.2519927201529525, -0.4997782808631612, 135250000000, 
-0.0999877458552395, -0.011363387215041309, -0.5004875560070713, 135255000000, 
-0.0311516486048273, -0.2032121157165608, -0.5001951940522619, 135260000000, 
-0.01199586841742165, -0.2489194191028232, -0.499722894514003, 135265000000, 
-0.07832495464581699, -0.021569632750132243, -0.4996481013976097, 135270000000, 
-0.06306034812369324, -0.16941542534372275, -0.5003570948642968, 135275000000, 
-0.03304071297890884, -0.3044950213311674, -0.4993487176361269, 135280000000, 
-0.0797973171660134, -0.019321714336984208, -0.4999548177724133, 135285000000, 
-0.04677139220402857, -0.25468193667719613, -0.5001403187664821, 135290000000, 
-0.09248027994309314, -0.05879310349461083, -0.49968274016151737, 135295000000, 
-0.09185840054669375, -0.1444181867969319, -0.4999379021088284, 135300000000, 
-0.03764276363137517, -0.2854808477781064, -0.49988940578593605, 135305000000, 
-0.09677532826481415, -0.017019032755018544, -0.5002121869384446, 135310000000, 
-0.019642165810103522, -0.2540347963057044, -0.5002543227264364, 135315000000, 
-0.08829767941298627, -0.023820808012888287, -0.4996133503530409, 135320000000, 
-0.0810935421970758, -0.1843156051802353, -0.5002375555671793, 135325000000, 
-0.02182651595639423, -0.27441321031136007, -0.5000119428577472, 135330000000, 
-0.07323690200496495, -0.01144428074675716, -0.49990820601871055, 135335000000, 
-0.05924196346018765, -0.18263361932298194, -0.5002638154676261, 135340000000, 
-0.052641448841260645, -0.14525025694136487, -0.5002193813031824, 135345000000, 
-0.08494187766658455, -0.14534636207097665, -0.4997439725810146, 135350000000, 
0.023613173085457035, -0.23243047932867414, -0.5004877841630846, 135355000000, 
-0.0863933992477307, -0.04860043863735372, -0.49976941604201064, 135360000000, 
-0.04622238923280669, -0.18138434698263387, -0.49993324261635574, 135365000000, 
-0.04805899622937349, -0.29668198491579795, -0.4998022884164006, 135370000000, 
-0.10527324435798878, -0.03051169088825364, -0.4998532990461427, 135375000000, 
-0.08688307805700729, -0.17198028456951123, -0.5001510569964781, 135380000000, 
-0.01707876486663919, -0.2606684225787874, -0.4998935524188238, 135385000000, 
-0.08250842562004118, -0.02604253185431753, -0.49992109737865437, 135390000000, 
-0.03414281523965454, -0.17889430001887527, -0.5000538497043819, 135395000000, 
-0.013548837226883699, -0.2588805203936982, -0.49965237976711263, 135400000000, 
-0.08019222685941657, -0.032058231371417736, -0.4998943144237616, 135405000000, 
-0.040431912792537564, -0.1648613327112615, -0.5002149022389084, 135410000000, 
-0.06286494203581064, -0.12445665579431298, -0.49956314166823756, 135415000000, 
-0.05983222933549453, -0.12565622731293816, -0.49989883223641424, 135420000000, 
-0.05004724436617655, -0.16150583064922447, -0.5000280861440589, 135425000000, 
-0.036127669162212495, -0.1438766865341734, -0.5001205228323579, 135430000000, 
-0.06321121915142783, -0.1421279667713709, -0.49976528037270035, 135435000000, 
-0.025245828186555595, -0.1432811744217252, -0.5000855627066808, 135440000000, 
-0.0492134383880281, -0.13341369157819555, -0.5000440537704643, 135445000000, 
-0.06817594279488652, -0.1485257438461203, -0.4999632805130669, 135450000000, 
-0.07116978496556939, -0.15876302872638948, -0.5004160182746866, 135455000000, 
-0.06538671208041844, -0.11959728973330633, -0.4998718754452899, 135460000000, 
-0.06933342388410015, -0.13760861627570797, -0.5000564233901332, 135465000000, 
-0.025594976056064134, -0.23000309161723714, -0.5000572763640829, 135470000000, 
-0.08200405056459383, -0.03892400752623359, -0.4997089818789213, 135475000000, 
-0.05479662689265489, -0.16139894017947817, -0.49992838096179926, 135480000000, 
-0.006939761222544489, -0.2830970274815093, -0.4993914141670933, 135485000000, 
-0.06523659745460574, -0.014442518642136543, -0.5003008188576854, 135490000000, 
-0.04514724313654429, -0.15160023525265465, -0.4996623444300457, 135495000000, 
-0.04661478229511573, -0.2568879628240501, -0.49959576048783194, 135500000000, 
-0.08525458008722908, -0.034258329914869434, -0.49965125423715256, 135505000000, 
-0.05452308033708329, -0.15986584049261093, -0.4998189066727019, 135510000000, 
-0.01576982239122536, -0.2619345687606358, -0.4998074913763895, 135515000000, 
-0.0786360035215362, -0.05493381742746739, -0.5002263021815512, 135520000000, 
-0.05098972529580608, -0.2502871684328131, -0.49990970154104847, 135525000000, 
-0.09533886196869275, 0.01427530037810365, -0.5002436382568018, 135530000000, 
-0.0684246665589125, -0.15571618417178368, -0.5002006335564371, 135535000000, 
-0.03834546066565538, -0.2448828760086051, -0.49997828053209165, 135540000000, 
-0.07771164970636957, -0.02985651401425122, -0.49994753724820773, 135545000000, 
-0.06144095223188735, -0.18246236462370283, -0.5000603374889575, 135550000000, 
-0.03478199968325538, -0.16788198406093177, -0.4998138302711384, 135555000000, 
-0.06484278659228694, -0.16583518132945121, -0.500024492653413, 135560000000, 
-0.034534521742159326, -0.24710732684637426, -0.500222837878687, 135565000000, 
-0.09985734938246199, -0.010075668063058053, -0.5000600182872265, 135570000000, 
-0.05565281234469701, -0.18204839152026286, -0.4999526206897152, 135575000000, 
-0.03922586164855941, -0.23285349384774282, -0.5002263772319939, 135580000000, 
-0.06397087625230242, -0.05210894513785539, -0.4998713962006816, 135585000000, 
-0.0756161251826556, -0.19019113386736297, -0.5001984387872763, 135591000000, 
-0.052195757198509635, -0.3353768693627942, -0.5002544797562314, 135596000000, 
-0.039609458127956694, 0.017373217573711686, -0.4995827167998536, 135601000000, 
-0.03751690057666101, -0.16980468161735673, -0.500093149057498, 135606000000, 
-0.05032529766674137, -0.28283850245779424, -0.500190061475157, 135611000000, 
-0.07829414227883462, -0.0245096920685573, -0.4997629274798766, 135616000000, 
-0.0741048487886697, -0.15599189561532037, -0.4999409627153456, 135621000000, 
-0.03170633629826886, -0.2716315584186223, -0.49985117395672146, 135626000000, 
-0.09294536186069677, -0.01586738689470525, -0.5000768057475866, 135631000000, 
-0.006992348965074367, -0.271319069240498, -0.4999651094416246, 135636000000, 
-0.07557791283590477, -0.021531385764437597, -0.49949873090020475, 135641000000, 
-0.0656563457595701, -0.17493962633975635, -0.5000680618738825, 135646000000, 
-0.03911580537943033, -0.2851986266137706, -0.5001114349155061, 135651000000, 
-0.08632283146333423, 0.005071615080412317, -0.49963302319846903, 135656000000, 
-0.0626399361557787, -0.19035585399983018, -0.49986519288841996, 135661000000, 
-0.048572397622328636, -0.2620709061131242, -0.5001648875077478, 135666000000, 
-0.05942176898892029, -0.0012048181691074883, -0.5000558481826265, 135671000000, 
-0.029967078678633914, -0.2676518909245593, -0.5001229894197174, 135676000000, 
-0.08097538313852252, -0.03177576290124245, -0.4996267863735312, 135681000000, 
-0.0807040415184265, -0.15349495711267086, -0.5002040809596551, 135686000000, 
-0.043611649055351, -0.28078693440950736, -0.5002327293134553, 135691000000, 
-0.0577354380644613, -0.037910419989532915, -0.4999010437355345, 135696000000, 
-0.050645030251928624, -0.16789407762842834, -0.4998757904493091, 135701000000, 
-0.0517732280366545, -0.2405797488360631, -0.5000836724414955, 135706000000, 
-0.05706775696182469, -0.03862810918122525, -0.49997802117496953, 135711000000, 
-0.06536849445755039, -0.14786974379848777, -0.500218893835119, 135716000000, 
-0.022046619256170488, -0.27367677706178256, -0.5000381299533593, 135721000000, 
-0.0664667358585525, -0.06357077022640649, -0.4999415074236885, 135726000000, 
-0.065151497242198, -0.14527329332085007, -0.5000141211938273, 135731000000, 
-0.01869366510290715, -0.23995864620157872, -0.5003679675609018, 135736000000, 
-0.09027511681985521, -0.01605281420030681, -0.49980601399949864, 135741000000, 
-0.06073236289768669, -0.15855104075715565, -0.5002148913167677, 135746000000, 
-0.03013039883705496, -0.30528088702576717, -0.499903442072987, 135751000000, 
-0.10972648876706959, 0.0029478447784464894, -0.49987666538654213, 135756000000, 
-0.05706569661792034, -0.13990935185100525, -0.5000420716262959, 135761000000, 
-0.05861214249675278, -0.1439850663004756, -0.4998082180295883, 135766000000, 
-0.05162503701931675, -0.13619402870886374, -0.5001118319493352, 135771000000, 
-0.04771902619623303, -0.2468486447002105, -0.5003726717631902, 135776000000, 
-0.051293100874657396, -0.04514599626277638, -0.5000182482021224, 135781000000, 
-0.040401696552743296, -0.14960148948567195, -0.5003367325118107, 135786000000, 
-0.06003347341376424, -0.2922926395396634, -0.49992387279343165, 135791000000, 
-0.05993170546203607, -0.01668644901690331, -0.49991883623538846, 135796000000, 
-0.053781689163402265, -0.15131046180210367, -0.5001399781959645, 135801000000, 
-0.04118875477040734, -0.25712789663811453, -0.49980255849575084, 135806000000, 
-0.07370288393107725, -0.039897620599651754, -0.5000268643528796, 135811000000, 
-0.06803697731755867, -0.15859918181866633, -0.4996925396223078, 135816000000, 
-0.04768223127355358, -0.28164018208682257, -0.4996738731622445, 135821000000, 
-0.0501209435541624, -0.04088513767917489, -0.49988237668804253, 135826000000, 
-0.06975456168047038, -0.17783587385608465, -0.5004401218369662, 135831000000, 
-0.04415022567740608, -0.16593165438027066, -0.4997954310458047, 135836000000, 
-0.05919475014861438, -0.1506669633525646, -0.4998802731576108, 135841000000, 
-0.07818555852465495, -0.15733176172331495, -0.5001431744371331, 135846000000, 
-0.054619536886623236, -0.14778137052147342, -0.49981186345063094, 135851000000, 
-0.05763622082618843, -0.1643972337502826, -0.5001744517550605, 135856000000, 
-0.0609842156602723, -0.1437506936489548, -0.5004274838561973, 135861000000, 
-0.0503634399032033, -0.18697330024111972, -0.5000731215723011, 135866000000, 
-0.018137050317969798, -0.1522991526333941, -0.5002347299402777, 135871000000, 
-0.05602721516508629, -0.15745744380463567, -0.5001406041861661, 135876000000, 
-0.0827089082041309, -0.14879694052996398, -0.4999245027947424, 135881000000, 
-0.06034052038610165, -0.14845812337348172, -0.5002745340356833, 135886000000, 
-0.07312659098669816, -0.1638922667996379, -0.5004424805118624, 135891000000, 
-0.042712775665891746, -0.17034309574374656, -0.5000397884459433, 135896000000, 
-0.048298135243793894, -0.13057343209026026, -0.49964664971713946, 135901000000, 
-0.059737527447013605, -0.14590532237912995, -0.500367328027472, 135906000000, 
-0.062235347331977914, -0.12930945069303046, -0.4997612110823063, 135911000000, 
-0.0748534614252803, -0.16088622753390264, -0.500029899355154, 135916000000, 
-0.02810650671731047, -0.12378956801249404, -0.5001635026027571, 135921000000, 
-0.03721082040008204, -0.1418908781678105, -0.4996413360149188, 135926000000, 
-0.053429832608724116, -0.13708157279925814, -0.500139291172117, 135931000000, 
-0.04837219918693867, -0.27989826324756106, -0.49984696810527596, 135936000000, 
-0.0676290037166312, 0.0062058493820428, -0.4997316914902889, 135941000000, 
-0.06477043398174999, -0.16282739943755808, -0.500010861248077, 135946000000, 
-0.05345056733353723, -0.2936459984237345, -0.49945722708626966, 135951000000, 
-0.09654529663289162, 0.013360449303165791, -0.4999807017421022, 135956000000, 
-0.04220368000742859, -0.1619273817705179, -0.4999203561925741, 135961000000, 
-0.027019798982185348, -0.3142415971442592, -0.5000560729515898, 135966000000, 
-0.0695361373035822, -0.03816834398025343, -0.49991733030882535, 135971000000, 
-0.049269568518693296, -0.17970285486018245, -0.5000638607496642, 135976000000, 
-0.034566480448714486, -0.29071225818231045, -0.49965814807232145, 135981000000, 
-0.08264670045601669, -0.025451390546884358, -0.4997257779377207, 135986000000, 
-0.06168304300346364, -0.2883588373150549, -0.5000865834053255, 135991000000, 
-0.06867977807988944, -0.03337615984971401, -0.49984550159296465, 135996000000, 
-0.06841700837989229, -0.16086675793693594, -0.5003124971088959, 136001000000, 
-0.028112654970373598, -0.27374466436241185, -0.49993363557829734, 136006000000, 
-0.09748585234953573, -0.041800471348256846, -0.5001326371299186, 136011000000, 
-0.052224995334539205, -0.1681420874505449, -0.500301308844309, 136016000000, 
-0.04648632920794929, -0.2918569265296967, -0.4995397300369937, 136021000000, 
-0.07412957680297184, 0.04314635453723296, -0.5000174460352833, 136026000000, 
-0.058161897229502914, -0.1997105633716274, -0.5000688096121201, 136031000000, 
-0.03255710073280555, -0.26982043441211057, -0.49924594508567943, 136036000000, 
-0.06153802433970758, -0.012245651872183147, -0.5000217163057865, 136041000000, 
-0.07191535420317603, -0.15736903325429197, -0.5004498764649966, 136046000000, 
-0.024736706645476187, -0.30266648581315747, -0.4994024338793836, 136051000000, 
-0.06175777783145189, 0.02502036312661367, -0.4999368049738521, 136056000000, 
-0.04607426529647087, -0.18185835083053759, -0.5003377547615339, 136061000000, 
-0.045608015956781836, -0.2601634935121356, -0.49931600053504693, 136066000000, 
-0.08710080228189597, -0.020216575019033452, -0.4998286791784401, 136071000000, 
-0.036973586204541956, -0.15230537990143644, -0.5008174634863275, 136076000000, 
-0.050275073806369905, -0.2778509940519901, -0.4998621839033252, 136081000000, 
-0.07695172753318348, -0.017889351627654527, -0.4999966069410462, 136086000000, 
-0.03190983677886948, -0.30491114675925707, -0.5000566030216916, 136091000000, 
-0.0783662186640392, -0.013379765035511318, -0.4999583067939658, 136096000000, 
-0.04822683576789824, -0.18029696763507855, -0.5003773674095846, 136101000000, 
-0.02585579969299739, -0.3020419359526101, -0.4997950874669766, 136106000000, 
-0.06636244993540444, -0.010666572631237978, -0.5001118616919178, 136111000000, 
-0.055940696199049914, -0.15520118584660475, -0.4999813153216531, 136116000000, 
-0.059980958991310285, -0.28610699346222535, -0.4998593919563326, 136121000000, 
-0.08853017074371852, 0.031372632864650064, -0.4998307168117272, 136126000000, 
-0.051383108437387685, -0.17748821691187588, -0.5003676918458361, 136131000000, 
-0.02209986838220153, -0.3023007972975599, -0.4998744538598707, 136136000000, 
-0.05482282269683146, 0.03394179509582268, -0.4996897299787107, 136141000000, 
-0.06965746692819806, -0.14999262946277653, -0.5003310636697695, 136146000000, 
0.00017513084572502724, -0.28695084679971594, -0.49993837343056957, 136151000000, 
-0.05996420808437404, -0.0061733309836897315, -0.49967381269155997, 136156000000, 
-0.04799795742226892, -0.1810935020885149, -0.5002768520876261, 136161000000, 
-0.03467028834092155, -0.3454279635297406, -0.49990225163858726, 136166000000, 
-0.07357318363080373, -0.0021868634977759167, -0.5000644306304078, 136171000000, 
-0.07425762300619264, -0.16073753537551835, -0.5005715928784622, 136176000000, 
-0.004725755911610514, -0.2665194210174047, -0.4999355160838549, 136181000000, 
-0.05436394621456725, 0.0031126041284536116, -0.5001377841273783, 136186000000, 
-0.034870096236259335, -0.2735835393119177, -0.5000796641982349, 136191000000, 
-0.05172441724779288, -0.012707090224009425, -0.4998341054748993, 136196000000, 
-0.04836323422435962, -0.1809966508640853, -0.5004079485003999, 136201000000, 
-0.03668258672496231, -0.30618246743009225, -0.4999167368126967, 136206000000, 
-0.0652043503644119, 0.008315499048843548, -0.5001818997646116, 136211000000, 
-0.03931454071109779, -0.17797913492349976, -0.5002138960705883, 136216000000, 
-0.044281995664815145, -0.15271085312461072, -0.49962531580680924, 136221000000, 
-0.05919498361860393, -0.138814842256964, -0.4999637173821714, 136226000000, 
-0.056580807523621095, -0.2733506689157356, -0.49991294442389167, 136231000000, 
-0.0683925643157263, 0.009571444462997823, -0.5001353936683359, 136236000000, 
-0.06543144763041885, -0.16791583350488687, -0.500158140461943, 136241000000, 
-0.02816414656411617, -0.28535209601843886, -0.49992776201871214, 136246000000, 
-0.10195449898072362, 0.039230044116131596, -0.4997653320202165, 136251000000, 
-0.04348469615180989, -0.19448020127769045, -0.500012936231105, 136256000000, 
-0.05906685805498249, -0.30085730591133664, -0.4997994985016734, 136261000000, 
-0.06479817211930951, 0.03040703634744494, -0.4997149772762706, 136266000000, 
-0.01369861106959374, -0.1762952322913246, -0.5002386303080512, 136271000000, 
-0.029473469917291693, -0.2897842226297371, -0.500157508200199, 136276000000, 
-0.0776128223701719, 0.01111610140646207, -0.5003763528980943, 136281000000, 
-0.01809904231336984, -0.16054535487777605, -0.5002013677454011, 136286000000, 
-0.010263772244989228, -0.31667067936995286, -0.49947225721176425, 136291000000, 
-0.04584358201643088, 0.027886003402209474, -0.500238329032549, 136296000000, 
-0.05309465716266917, -0.17633046915705525, -0.5005347955852532, 136301000000, 
-0.02220302993647713, -0.3188242531335123, -0.4997261963915255, 136306000000, 
-0.08592733584393536, -0.0005381452668335712, -0.49997118024048, 136311000000, 
-0.0763548523439645, -0.16838445045901526, -0.500084155519428, 136316000000, 
-0.02729106905080236, -0.30845235619308015, -0.4999585685413492, 136321000000, 
-0.09539272536044792, -0.022212787859216987, -0.500071061827606, 136326000000, 
-0.04514719477456238, -0.1598408663429846, -0.5002117580453498, 136331000000, 
-0.030914546870461464, -0.28802182186704817, -0.4993409804797264, 136336000000, 
-0.09784270796183465, 0.03018448369241623, -0.4998477537017832, 136341000000, 
-0.04424742589401963, -0.1658382954726337, -0.5003387917998613, 136346000000, 
-0.042001175467751804, -0.1811550137059277, -0.4997030025428594, 136351000000, 
-0.04145125123011509, -0.1378255063672608, -0.5001810825027564, 136356000000, 
-0.03859264673622989, -0.29992408069140547, -0.499861937310423, 136361000000, 
-0.09553569289308457, -0.014964752413427963, -0.4997857652553376, 136367000000, 
-0.053013051435945785, -0.16986076689782942, -0.500314824656719, 136372000000, 
-0.018831876364711057, -0.3242332834463702, -0.500051468619652, 136377000000, 
-0.09189326530516753, 0.015362414968140413, -0.4997894072258273, 136382000000, 
-0.07737450424596228, -0.17446268694503222, -0.500187631433579, 136387000000, 
-0.051385289007956636, -0.31015057678268027, -0.5000976411571584, 136392000000, 
-0.10344080033130501, 0.045318610544745445, -0.5000716280249562, 136397000000, 
-0.05496620926519794, -0.15361061536670417, -0.5005286186725675, 136402000000, 
-0.061760134769482486, -0.15313503845616397, -0.5001942152711387, 136407000000, 
-0.08571281016547289, -0.13511785966554266, -0.5002067997010547, 136412000000, 
-0.029856724214874127, -0.31620194698417964, -0.4998966995073599, 136417000000, 
-0.10236816208198261, 0.038166769612904806, -0.49967154843701594, 136422000000, 
-0.04690613699780068, -0.14159543112486273, -0.5002761674806834, 136427000000, 
-0.018431407829670537, -0.297859480129821, -0.4999058989978706, 136432000000, 
-0.10014155245311829, 0.04855698343794508, -0.4998720390809405, 136437000000, 
-0.028167237067568584, -0.30418193669583266, -0.5003718607562404, 136442000000, 
-0.07812209882572119, -0.0037498304008068105, -0.4999642116154622, 136447000000, 
-0.03132286194666538, -0.17094854107686255, -0.5004711990626555, 136452000000, 
-0.0016932328666750627, -0.34783566532477833, -0.49986307264678903, 136457000000, 
-0.05879320206134982, 0.03509148883679091, -0.49999511885065845, 136462000000, 
-0.037410051343447076, -0.17438347249166938, -0.5002334634231125, 136467000000, 
-0.07105033543968355, -0.13814204755553552, -0.4999309881072849, 136472000000, 
-0.06434652352900823, -0.13044829611876158, -0.4999884021728814, 136477000000, 
-0.008810146792973149, -0.3507851693010959, -0.50000426329915, 136482000000, 
-0.0969424403399391, 0.035454784402835844, -0.4996361867863874, 136487000000, 
-0.04566109128025937, -0.14914802848724196, -0.5003963869239237, 136492000000, 
0.015601226993167613, -0.3101889983244165, -0.500292082269569, 136497000000, 
-0.0954952114302934, 0.07869623964804448, -0.5000823413727731, 136502000000, 
-0.05876167170809346, -0.13997118370224496, -0.5000929976885511, 136507000000, 
-0.05362627327026603, -0.13955506391309558, -0.5001828478656606, 136512000000, 
-0.06976197699509319, -0.14424404516269826, -0.49998171450765183, 136517000000, 
-0.023286527117404126, -0.3694803634356585, -0.5000410710186808, 136522000000, 
-0.12077362809790138, 0.041558970159225446, -0.49991920354144087, 136527000000, 
-0.0780893314897722, -0.17417835810739, -0.5001567561385057, 136532000000, 
-0.014573824128109243, -0.3003047070874383, -0.4996814777388277, 136539000000, 
-0.11645805250462593, 0.035817856857296354, -0.4998349021678243, 136544000000, 
-0.024002241983603137, -0.3014956323653002, -0.5001587650953947, 136550000000, 
-0.10176258843884807, -0.016395263571203963, -0.49977371344983046, 136555000000, 
-0.07217080067051229, -0.17756547576559065, -0.500204607170151, 136560000000, 
0.02226132411680091, -0.33716961319932437, -0.5004893127377867, 136565000000, 
-0.09526617322284443, 0.017937075058420678, -0.49977558688688234, 136570000000, 
-0.04049618428881062, -0.14327435445963424, -0.4999051004940621, 136575000000, 
-0.053951612998775315, -0.1837087619288007, -0.5004792686681441, 136580000000, 
-0.037525280261586365, -0.2854245320588953, -0.4998931173722249, 136585000000, 
-0.13961801657018563, 0.03826606054486677, -0.5001663560540476, 136590000000, 
-0.04287337974899853, -0.1766573042004636, -0.5003482549787065, 136595000000, 
-0.058445629467914186, -0.14797910806409112, -0.499629762939774, 136600000000, 
-0.06090189693958518, -0.16307668145585041, -0.500175195602769, 136605000000, 
-0.011840877607577295, -0.29921881164615616, -0.5000278953859163, 136610000000, 
-0.10991617243598102, 0.018084464527954598, -0.49978603754610884, 136615000000, 
-0.06589721531264149, -0.1664872281087632, -0.5005256488392671, 136620000000, 
0.01190619388852447, -0.34686917876122786, -0.5000781939709631, 136625000000, 
-0.11875410714940955, 0.05514765436895672, -0.4999623209999873, 136630000000, 
-0.0685700531497114, -0.18478617161771713, -0.4999686793782174, 136635000000, 
-0.011712375652505769, -0.27938874966210675, -0.5000285335760224, 136640000000, 
-0.13711773663779098, 0.04588161383555282, -0.49971888804797227, 136645000000, 
-0.053251893428292535, -0.16604692259781972, -0.5005115659546993, 136650000000, 
0.016032663132382614, -0.3416619149671904, -0.49958993367983956, 136655000000, 
-0.18000621059296806, 0.0396228579155866, -0.5002554613490173, 136660000000, 
-0.048182866641739944, -0.18870355088091487, -0.5002727232328561, 136665000000, 
0.02727199338662669, -0.33271058168569345, -0.500051780310452, 136670000000, 
-0.11127359043817317, 0.02996027506482407, -0.49999045315077817, 136675000000, 
-0.04813985804263441, -0.18324617714028185, -0.4999253913786821, 136680000000, 
0.014796029734574454, -0.368611797691283, -0.49943031275955174, 136685000000, 
-0.17229315830325515, 0.0757694772554704, -0.499838827339656, 136690000000, 
-0.06523127388648352, -0.142401573132612, -0.5007066369153929, 136695000000, 
0.031546805520626615, -0.3231159366828711, -0.49990452244760375, 136700000000, 
-0.122512054669815, 0.05469995976006089, -0.4998311605901195, 136705000000, 
-0.06557414562997967, -0.1570687913627274, -0.5001739309515821, 136710000000, 
0.027666798167560114, -0.343172976365166, -0.49963257468436384, 136715000000, 
-0.14202884598237372, 0.05781959745889024, -0.5000743437227667, 136720000000, 
-0.03183187825400367, -0.16764497342929416, -0.4999889791396296, 136725000000, 
0.07414937262937088, -0.3657771979805118, -0.49978561927256765, 136730000000, 
-0.15396444012614194, 0.06268705984869516, -0.5000154865335669, 136735000000, 
-0.04982493304732392, -0.16905664400864515, -0.500137605822351, 136740000000, 
-0.04914298235936533, -0.16506636853062598, -0.4999442769798635, 136745000000, 
-0.07243495326989534, -0.11746136249378022, -0.5000850104414571, 136750000000, 
-0.05834698655680998, -0.19353778719072667, -0.5003785102086392, 136755000000, 
0.06334584430480054, -0.32014420963273366, -0.5000323418287955, 136760000000, 
-0.13668490066225172, 0.022370211842630855, -0.5004774618906811, 136765000000, 
-0.045843063462111804, -0.17034619367566467, -0.5004383310040119, 136770000000, 
0.04069180046245028, -0.3614852058620701, -0.4999151400490744, 136775000000, 
-0.15658517700750393, 0.05712083807344755, -0.4997633740985928, 136780000000, 
-0.03344191381780365, -0.1691626301061097, -0.4999364830065115, 136785000000, 
0.03737868862394329, -0.3590405981721916, -0.49980075507740024, 136790000000, 
-0.11230545520994438, 0.01373786107365911, -0.4999145192383992, 136795000000, 
-0.04859752694327288, -0.15034007280352266, -0.500078969601366, 136800000000, 
-0.04680633147032149, -0.14154297624107712, -0.4996773893028743, 136805000000, 
-0.06350125005452942, -0.10007904747219244, -0.5003148189166748, 136810000000, 
0.02114513279350067, -0.35766778154397, -0.4999217864712068, 136815000000, 
-0.14693078656575928, 0.041957664608861016, -0.499704730035902, 136820000000, 
-0.04833678708415781, -0.1653479208729405, -0.499999793312812, 136825000000, 
0.028023675913542614, -0.3529152978896595, -0.500060425616531, 136830000000, 
-0.14436678147389567, 0.03316662026493401, -0.5000193425621372, 136835000000, 
-0.015712279338551183, -0.16689425608837574, -0.5003002770703705, 136840000000, 
0.03313982103700785, -0.37914917223250466, -0.4995743188982283, 136845000000, 
-0.1630075503049984, 0.02698422545710018, -0.49993194628582793, 136850000000, 
0.020648841286479126, -0.28995361444659057, -0.5000988812709326, 136855000000, 
-0.16229205540446576, 0.019728466870335193, -0.49977145599551853, 136860000000, 
-0.08298778443565405, -0.15253752230038167, -0.5000164865304176, 136865000000, 
0.04656820606753376, -0.3408600120361736, -0.49972705358663716, 136870000000, 
-0.16638943545434978, 0.05705728671223104, -0.5000039620702103, 136875000000, 
-0.06314463327693991, -0.1655290640086597, -0.5005156021280653, 136880000000, 
0.025551061764003714, -0.3539641809949254, -0.49992567362357115, 136885000000, 
-0.1330049223338507, 0.07300055807587054, -0.4997666606949925, 136890000000, 
-0.057204208219239834, -0.16282373783403842, -0.50031919504528, 136895000000, 
-0.008208346483544383, -0.4190330155927982, -0.49982613625079275, 136900000000, 
-0.15217547829040512, 0.07013619547032035, -0.4999192916924324, 136905000000, 
-0.03085516462978558, -0.15833407505744698, -0.500136438867939, 136910000000, 
0.037398351122214124, -0.3635231779125478, -0.49971215926540014, 136915000000, 
-0.11579505299129858, 0.07093400532870492, -0.49995783430736923, 136920000000, 
-0.06562631521351212, -0.17786031721344334, -0.5004170721148196, 136925000000, 
0.057449782210983937, -0.39716377616321835, -0.4999738006114678, 136930000000, 
-0.17006915120592317, 0.06827545381351402, -0.500037807160377, 136935000000, 
-0.05065553919763544, -0.1898893292728145, -0.500057143392, 136940000000, 
0.032108154503663035, -0.3335450160588568, -0.4997832576774804, 136945000000, 
-0.13461032918511284, 0.05126998653267276, -0.4996504359045216, 136950000000, 
-0.04730673650989563, -0.19216550357953072, -0.5001206852690149, 136955000000, 
0.02868332426444066, -0.33179685076040044, -0.5001487436241001, 136960000000, 
-0.16483118982493966, 0.09785860810839175, -0.49966001764602197, 136965000000, 
-0.055401823703111634, -0.1642645550426445, -0.4999699947819575, 136970000000, 
0.052716657197702965, -0.35277481876948996, -0.5000515232833396, 136975000000, 
-0.1506047482756236, 0.04727027575653353, -0.4999859623507263, 136980000000, 
-0.03755741304132531, -0.1807237563529547, -0.5002127848661353, 136985000000, 
0.02527616641022623, -0.3602628639758737, -0.49999346150869267, 136990000000, 
-0.1672532966549651, 0.06175543112077698, -0.4998247677043092, 136995000000, 
-0.060398547532591385, -0.15822668316945604, -0.5002388368499547, 137000000000, 
0.028922980596571723, -0.3772481367490219, -0.49948994874574537, 137005000000, 
-0.13203114852739606, 0.044269685834375204, -0.49986926719965724, 137010000000, 
-0.06306555419506439, -0.15890033267063153, -0.5005005925870794, 137015000000, 
-0.0671842078752892, -0.13059017552813174, -0.49991354592937687, 137020000000, 
-0.08302827344626239, -0.1553498769047082, -0.4999861465817, 137025000000, 
0.029484318848766913, -0.33878198293009804, -0.5000686746038447, 137030000000, 
-0.1483840159128373, 0.015614020302695882, -0.4997648068992939, 137035000000, 
-0.053788085238248434, -0.15891656762971115, -0.5005393236528871, 137040000000, 
0.0327581293798155, -0.3599185966615741, -0.4997149900478513, 137045000000, 
-0.11865707222873043, 0.045995620444894074, -0.5000192126115776, 137050000000, 
-0.05684026047237029, -0.15407335739656572, -0.5002728827129579, 137055000000, 
-0.0541027439326948, -0.15461529698074214, -0.4996255581607083, 137060000000, 
-0.05214879349434305, -0.11740398231578081, -0.5000344809874047, 137065000000, 
0.013040189770127664, -0.33952388427171026, -0.5001904715858769, 137070000000, 
-0.14816253500476023, 0.026465986357016386, -0.499756030597724, 137075000000, 
-0.06643983105750638, -0.16205633722772997, -0.5001684621658348, 137080000000, 
0.0041904878052440656, -0.33219472743690215, -0.5000552338456057, 137085000000, 
-0.09498954519313282, 0.050009870526255926, -0.5002430026675444, 137090000000, 
-0.03494171570241805, -0.19168060931268327, -0.500146378974026, 137095000000, 
0.032124001912695876, -0.32610497435007935, -0.4997131874413215, 137100000000, 
-0.1534399725613374, 0.07770349542412935, -0.5001549595159255, 137105000000, 
-0.07162456906705855, -0.15022214008547635, -0.49980803310926425, 137110000000, 
-0.003910183490620153, -0.32851962590681805, -0.4998232696405611, 137115000000, 
-0.126880451765415, 0.04987052626496168, -0.4998732296727199, 137120000000, 
-0.06512043264397535, -0.1692124822029863, -0.499800479788538, 137125000000, 
0.033340193088745015, -0.32149526336895085, -0.499818474557295, 137130000000, 
-0.1456951363630049, 0.05436986404173992, -0.4999259940889103, 137135000000, 
-0.04393802381227928, -0.1610181729385611, -0.49991596794193766, 137140000000, 
0.03289575092584048, -0.29045072121472837, -0.49962921849225184, 137145000000, 
-0.13594813014272927, 0.07861660973249589, -0.49999913298098947, 137150000000, 
-0.06509405925982606, -0.14095838021021026, -0.5002161025345536, 137155000000, 
0.03673631734659319, -0.3346310357084776, -0.4995551891250022, 137160000000, 
-0.11451089395134774, -0.011175411314874074, -0.49999853413431067, 137165000000, 
-0.021246149910082706, -0.1809022228438864, -0.4997430063774918, 137170000000, 
-0.0036910196823611366, -0.3347006690730228, -0.5002794057233318, 137175000000, 
-0.13976153559513188, 0.054915841266694895, -0.5001380853827377, 137180000000, 
-0.04908246867701684, -0.15693701799567933, -0.5002853021681098, 137185000000, 
0.008440854004336432, -0.3624972377369406, -0.4996036989196218, 137190000000, 
-0.12196843310187927, 0.06681850788829385, -0.5000494461135198, 137195000000, 
-0.047490226812035685, -0.16517522761716014, -0.5001504881741636, 137200000000, 
0.02165713491108266, -0.3515721222742966, -0.4996819252356461, 137205000000, 
-0.10310728111290905, 0.056255381561991294, -0.499733960089132, 137210000000, 
-0.051695069559087245, -0.13252688182823236, -0.5001272728827387, 137215000000, 
0.015928444752966592, -0.3535105599016914, -0.49943923781848815, 137220000000, 
-0.14636473757176532, 0.04842733954570378, -0.5004394119259097, 137225000000, 
-0.07088348781798592, -0.17037143702026078, -0.49990718723778965, 137230000000, 
0.006338280946056871, -0.30459290610525097, -0.4999431518684853, 137235000000, 
-0.13316876538621455, 0.04105119485172501, -0.49972890923526603, 137240000000, 
-0.049758064395173746, -0.1477675706835576, -0.49974131179308773, 137245000000, 
0.0007334888783293702, -0.32961791049842204, -0.4995970430528288, 137250000000, 
-0.12158340943440722, 0.04943006026749523, -0.499906034555513, 137255000000, 
-0.07317936841357703, -0.1560710032290401, -0.49997149434551763, 137260000000, 
-0.07308297421679706, -0.16498360498811196, -0.4999864924922073, 137265000000, 
-0.06811044207641537, -0.13718269697778823, -0.5004503451937841, 137270000000, 
0.011113090233050333, -0.3610024161243077, -0.4998489704813437, 137275000000, 
-0.11383609112887341, 0.008840051803454667, -0.4997128085733117, 137280000000, 
-0.052402866516235005, -0.15155447789880086, -0.5000447475474711, 137285000000, 
0.0039173169703162255, -0.2992693276649091, -0.5000077060488313, 137290000000, 
-0.11105472756510446, 0.04681191289709945, -0.4995809862306546, 137295000000, 
-0.041318226321136006, -0.1716583197034523, -0.5002390614072095, 137300000000, 
-0.030696660934075765, -0.15948877457851157, -0.4998508099360518, 137305000000, 
-0.09448347378777439, -0.08751718023813146, -0.4996575666905077, 137310000000, 
0.042881043658345636, -0.36213862313569417, -0.4999086998421683, 137315000000, 
-0.12958327654513402, 0.04751508274854588, -0.4999284396345214, 137320000000, 
-0.05770930111638875, -0.17773469776881634, -0.5001013010814546, 137325000000, 
9.098961567255079e-05, -0.3692884378100909, -0.5002561934674233, 137330000000, 
-0.13537594294458752, 0.06399811228571464, -0.4998500398235465, 137335000000, 
-0.05988161168672484, -0.18305467190877248, -0.4999457785609212, 137340000000, 
0.014187783749745445, -0.3603567518193082, -0.49992262603145715, 137345000000, 
-0.12759024458334883, 0.053363080890323454, -0.4998210644055114, 137350000000, 
-0.02063543408714469, -0.16271227613372033, -0.4999914599334171, 137355000000, 
0.006776947339666959, -0.32265666637893275, -0.49962361671934086, 137360000000, 
-0.15857989525334176, 0.03499086579290843, -0.5001007350689974, 137365000000, 
-0.03998570998628932, -0.31277377985748966, -0.5000968350266386, 137370000000, 
-0.095830957143856, -0.0021116932451570045, -0.5001288665978642, 137375000000, 
-0.06063639749129725, -0.13074844351707735, -0.5001881930285293, 137380000000, 
-0.02708330004318864, -0.3202789534680129, -0.5000249835262539, 137385000000, 
-0.08731574885424125, 0.005715091128469304, -0.49988010939707256, 137390000000, 
-0.08678435961257117, -0.15882831722201737, -0.499789542039013, 137395000000, 
0.010605261254751764, -0.35628005216564335, -0.5001329122618954, 137400000000, 
-0.12095143820801872, 0.06262917962980892, -0.49966029207428003, 137405000000, 
-0.05354519845951992, -0.18809024649166417, -0.4999586650804016, 137410000000, 
0.015469916161329719, -0.3429853679928203, -0.4996795593820857, 137415000000, 
-0.15431750712718384, 0.031011895449076593, -0.5000194698414767, 137420000000, 
-0.013823713665292807, -0.34784670826888137, -0.5004470171243984, 137425000000, 
-0.10782743448410721, 0.006618901512579929, -0.49967693053219603, 137430000000, 
-0.08843404244695799, -0.14571060515559642, -0.5003374057418818, 137435000000, 
-0.005591134551709934, -0.3095003664081935, -0.5000602110487419, 137440000000, 
-0.1159380507879324, -0.014161253705851966, -0.49978291144996245, 137445000000, 
-0.05668155469854436, -0.15927889019653343, -0.49989816718098207, 137450000000, 
-0.008558771513252225, -0.3085333339004998, -0.5003959636429217, 137455000000, 
-0.08977328517856484, 0.0042884760269188355, -0.49980374644610154, 137460000000, 
-0.07481338403418443, -0.13793102572607127, -0.4999581496253115, 137465000000, 
-0.004885126281590262, -0.31563504939435394, -0.5003549099541674, 137470000000, 
-0.09174916949591143, 0.015154961461245743, -0.5002106247979036, 137475000000, 
-0.06075712430411308, -0.1412265555244713, -0.5001543157185345, 137480000000, 
-0.006181736911970565, -0.26948771257613185, -0.500137946660087, 137485000000, 
-0.11462394116429761, 0.04359219461152951, -0.4996962355007032, 137490000000, 
-0.043154929797387914, -0.156177801417741, -0.5000887732377122, 137495000000, 
0.03996832757095298, -0.36651100718888735, -0.5000610561542682, 137500000000, 
-0.13725387651293328, 0.04211387172803283, -0.5002646385437474, 137505000000, 
-0.07343057966232013, -0.1769926845142419, -0.5000923590657026, 137510000000, 
-0.041335903585002186, -0.12950373167531903, -0.49980134093906525, 137515000000, 
-0.10522282485964206, -0.13574786245477655, -0.5003765852011568, 137520000000, 
-0.0030996684751112575, -0.2941685902587599, -0.5004084934755997, 137525000000, 
-0.13137175322686695, 0.02547450124877679, -0.4996134338450934, 137530000000, 
-0.018201353062505823, -0.15741719702731807, -0.5002205707104661, 137535000000, 
-0.009459378720505264, -0.31151451567757477, -0.4998781098837175, 137540000000, 
-0.14063538943390227, 0.020124097480415867, -0.49982022056387093, 137545000000, 
-0.04296612727786944, -0.1950278860928772, -0.5000053959984259, 137550000000, 
0.031193578773508465, -0.34369221779512754, -0.4998169859742478, 137555000000, 
-0.14196359975931996, 0.04329358697654023, -0.49985875467128216, 137560000000, 
-0.052497211608675313, -0.14694555964961048, -0.5001391800317844, 137565000000, 
0.002373601925606532, -0.32868623069230296, -0.4997223696138493, 137570000000, 
-0.12802364602402003, 0.031137208794595018, -0.500008912935441, 137575000000, 
-0.048337349320227825, -0.17142453248163286, -0.50003698677682, 137580000000, 
-0.011656007692963218, -0.2891299368395904, -0.49986186671503074, 137585000000, 
-0.13129371708734316, 0.025911950075217884, -0.4999377655458283, 137590000000, 
-0.0565291212163762, -0.1960410757960244, -0.5002058967094105, 137595000000, 
-0.006669430733608588, -0.28985354798979124, -0.4996761883637807, 137600000000, 
-0.11580705167706079, 0.04919794470256921, -0.5000009213690705, 137605000000, 
-0.07268858980468632, -0.1637334537715293, -0.5003069448843491, 137610000000, 
0.027722712700889555, -0.3206836199463286, -0.49913631709634565, 137615000000, 
-0.12850347836366338, -0.009991991389747178, -0.5001278569018442, 137620000000, 
-0.06519681367286237, -0.16825504375182357, -0.5000196561605473, 137625000000, 
-0.012048811545498944, -0.28851668955394205, -0.49969051755640365, 137630000000, 
-0.12754932824841944, 0.0028362549359618027, -0.50009267151336, 137635000000, 
-0.028040240578469024, -0.2655363643837725, -0.5000433687378936, 137640000000, 
-0.14259484808280531, 0.03446522679115649, -0.4999187393467412, 137645000000, 
-0.06672767865439724, -0.1477478225935047, -0.5002435215150708, 137650000000, 
-0.00402297716416048, -0.27113550790900415, -0.5000660748205558, 137655000000, 
-0.12908326799743042, -0.001167485657595703, -0.4994980190441296, 137660000000, 
-0.05961893599890156, -0.15472984944163948, -0.5002995624302943, 137665000000, 
0.03341717340773585, -0.32033042434106573, -0.5000990778957423, 137670000000, 
-0.12634461931471191, 0.014599522006950149, -0.4998317621524586, 137675000000, 
-0.04474442657442469, -0.16803820846644318, -0.5000488597336404, 137680000000, 
-0.00039983398421098023, -0.2632398508155822, -0.49993170931072206, 137685000000, 
-0.13959044386088962, 0.029581827958912742, -0.4998891542469348, 137690000000, 
-0.06996255322255664, -0.1887704452686171, -0.4999766072306457, 137695000000, 
0.03222991242229284, -0.31041543012963224, -0.4998699457815877, 137700000000, 
-0.0959481531347471, 0.027058250432041287, -0.4997949968503599, 137705000000, 
0.0003337360446475238, -0.33567728717308903, -0.4998170757700747, 137710000000, 
-0.08108795338391168, 0.004066385083910823, -0.500089618193873, 137716000000, 
-0.07288041674438828, -0.15791189369927075, -0.5000307908385516, 137721000000, 
0.01574612135475077, -0.32150918226654546, -0.49918820820247767, 137726000000, 
-0.11071748741130572, 0.007375966432467348, -0.49984555992615015, 137731000000, 
-0.004831052244491504, -0.28499099730119243, -0.5002425465702292, 137736000000, 
-0.09904835059410766, 0.002337794209780722, -0.49979746721686363, 137741000000, 
-0.05604982051556251, -0.1662576114247311, -0.5002179080238651, 137746000000, 
0.022579891778514875, -0.31257590372687233, -0.4996942492813992, 137751000000, 
-0.11537566886622708, 0.05533075960812847, -0.4999734056624087, 137756000000, 
-0.040271581546994464, -0.1861756201695552, -0.4996840437240861, 137761000000, 
-0.01858650889045927, -0.3499985130003198, -0.5000396562787391, 137766000000, 
-0.13498039621359595, 0.023197251911206574, -0.4996963424274504, 137771000000, 
-0.05264160870125202, -0.1633073033018476, -0.5002891262208555, 137776000000, 
0.0014341552995676757, -0.27323399605904763, -0.4999808755164717, 137781000000, 
-0.12839561275353087, 0.043484812242315554, -0.5001113237219327, 137786000000, 
-0.03511058009291858, -0.1766562602784943, -0.5001434975520436, 137791000000, 
-0.0429722459494872, -0.2611438366583419, -0.49975587313561676, 137796000000, 
-0.13626669655986168, 0.056551892184901704, -0.49996696201390256, 137801000000, 
-0.0668020116011031, -0.17242372053426627, -0.5002752187910158, 137806000000, 
-0.017372812778969567, -0.2908392348140693, -0.4999728059456533, 137811000000, 
-0.13398369686328254, -0.006111761047498318, -0.4999280724396934, 137816000000, 
-0.051170209061821126, -0.15471130075194614, -0.49996740417546404, 137821000000, 
-0.0010337051220664969, -0.2718132874375084, -0.5002239380006669, 137826000000, 
-0.11466251470297922, -0.0012032025440836657, -0.4999205477806591, 137831000000, 
-0.05837926218421866, -0.17531652498072675, -0.5000463915942778, 137836000000, 
0.02608089970879119, -0.29422220783631453, -0.500053353082612, 137841000000, 
-0.10751140931082936, -0.002026934931720282, -0.5001729715890185, 137846000000, 
-0.07421975200661167, -0.17932488592966087, -0.5001621800029361, 137851000000, 
-0.009984123113827608, -0.3001596287291393, -0.5000985291220127, 137856000000, 
-0.12336855289038301, -0.003918501200813683, -0.4999667466205582, 137861000000, 
-0.06897092090237461, -0.18671122225186496, -0.5008080414950185, 137866000000, 
-0.020899744608257137, -0.24576178531765056, -0.4991639636706999, 137871000000, 
-0.13787580262058835, -0.0266762767950125, -0.49988627299274274, 137876000000, 
-0.06968283433539733, -0.21037541959806627, -0.5001962961426789, 137881000000, 
0.0345236871595983, -0.2607584678738539, -0.5000195359766664, 137886000000, 
-0.10816590487920688, -0.00478159892826281, -0.5003570817567049, 137891000000, 
-0.09321176671456216, -0.18107376634225572, -0.5000442205858435, 137896000000, 
0.010528146046884911, -0.30921893179585797, -0.5000507042369865, 137901000000, 
-0.12444307233363201, -0.004964999753413768, -0.5002094842319039, 137906000000, 
-0.09040458919549002, -0.1802708688491204, -0.5001240597235949, 137911000000, 
0.016766643371926272, -0.26445332519976855, -0.5001263580057232, 137916000000, 
-0.09927939395292149, -0.01711779779780374, -0.5000859425017601, 137921000000, 
-0.08475901007514702, -0.1350201206925612, -0.49996604717460247, 137926000000, 
-0.02711756967898307, -0.26178329138224427, -0.49980684262917136, 137931000000, 
-0.07631995729336905, -0.025485614628477177, -0.500033032019449, 137936000000, 
-0.03622734347449275, -0.12696965983944175, -0.5002438530097496, 137941000000, 
-0.061196873147564834, -0.1711776294823706, -0.49957032001547, 137946000000, 
-0.06894727015423088, -0.13205426892102376, -0.49993095323541265, 137951000000, 
0.009775400830383613, -0.3014542463895927, -0.5003117041056943, 137956000000, 
-0.08804233355689821, -0.01971702097768891, -0.49978641864437795, 137961000000, 
-0.09756856875259992, -0.171963965704208, -0.49986827676158063, 137966000000, 
0.023535221158626496, -0.2780414202075495, -0.5000532437855624, 137971000000, 
-0.09998547228837383, 0.019735570412621903, -0.4997586163636974, 137976000000, 
-0.03109196949020789, -0.17768220931464068, -0.5001364330011006, 137981000000, 
0.013137730436022836, -0.2736460677977642, -0.49984812460046857, 137986000000, 
-0.0994781024332442, 0.0011246685783922062, -0.5000184067814725, 137991000000, 
-0.043736416030162886, -0.1294185491557017, -0.4999762655961195, 137996000000, 
-0.022239859568823822, -0.28622114626121486, -0.49979393150483886, 138001000000, 
-0.1504550611268652, -0.02840899532387425, -0.49993077398945557, 138006000000, 
-0.03739902674343304, -0.18020043167439073, -0.4996729560944168, 138011000000, 
-0.0264809978761065, -0.3130970532181593, -0.500231814082244, 138016000000, 
-0.09109288006301106, -0.037104331325744644, -0.49967319453997394, 138021000000, 
-0.07302786101721226, -0.1459982839030706, -0.5000647519345219, 138026000000, 
-0.014949122741508386, -0.28253440709183614, -0.5000512397662145, 138031000000, 
-0.11445712915402105, -0.01447569936099082, -0.5000308023087134, 138036000000, 
-0.01879395942906425, -0.18987891075806176, -0.5001205937469397, 138041000000, 
0.0075384561018636866, -0.24497088428310337, -0.5001977132149319, 138046000000, 
-0.13306695927857104, -0.03440317093745862, -0.5000028574095088, 138051000000, 
-0.07514873162179797, -0.16495987694780195, -0.5000369623807955, 138056000000, 
-0.01880430040679722, -0.2651640352532233, -0.49978780867100747, 138061000000, 
-0.11683054018674516, 0.026316614955567297, -0.4997713514543433, 138066000000, 
-0.07739470527680305, -0.17128303741011827, -0.5003345526422873, 138071000000, 
0.007340695127726057, -0.25845515627987714, -0.4996014289968149, 138076000000, 
-0.13103591587657837, -0.01595440578342593, -0.49998822071650906, 138081000000, 
-0.030666884225457606, -0.1902978183401597, -0.5005217074218935, 138086000000, 
-0.0248016484446253, -0.2899252996789513, -0.49993395061713847, 138091000000, 
-0.14683201910180657, 0.019892927764935474, -0.49998746875688443, 138096000000, 
-0.03208847835351794, -0.16201516728270907, -0.5003859301276412, 138101000000, 
-0.051363823932921604, -0.11807691680129301, -0.4998285597743739, 138106000000, 
-0.05813820746493481, -0.1294067032740014, -0.5001625417747161, 138111000000, 
-0.036434805228892295, -0.26302603577332784, -0.49981700436076726, 138116000000, 
-0.10821480502045114, -0.01009222401272238, -0.50004597760565, 138121000000, 
-0.05435164960431511, -0.17359628674939154, -0.4999353727302505, 138126000000, 
0.00796632841424805, -0.2884015236336585, -0.49984450186115637, 138131000000, 
-0.11709665218533633, -0.033457871068939174, -0.4999727904715378, 138136000000, 
-0.03399134276273104, -0.2509722105995124, -0.5001940197363265, 138141000000, 
-0.0976129642142852, -0.015711838166273223, -0.4998862314952196, 138146000000, 
-0.05024530017750299, -0.15573733926119956, -0.5002732562376073, 138151000000, 
0.015873919772118068, -0.23874222023777988, -0.500014072225189, 138156000000, 
-0.111688061759619, 0.002934246173339223, -0.4997520620738192, 138161000000, 
-0.0635641844995042, -0.18792062134070014, -0.49988147454378973, 138166000000, 
0.002292230802517054, -0.2801229544712987, -0.49984858408986227, 138171000000, 
-0.1062049397637473, -0.005535389607519746, -0.49991174022766144, 138176000000, 
-0.08724713585711015, -0.1658751278769001, -0.5001254360923187, 138181000000, 
0.03211367626109336, -0.3015426271843288, -0.5000563861905808, 138186000000, 
-0.09390101536357841, 0.0038486106831746563, -0.499613925590389, 138191000000, 
-0.04103341291502334, -0.18396433130934065, -0.5004082401540394, 138196000000, 
0.0015606163401779734, -0.24090719545376849, -0.49973372241242947, 138201000000, 
-0.1450001099363024, 0.006425458741310317, -0.49977181665930603, 138206000000, 
-0.03500979279894266, -0.17029945487476533, -0.49996444783850935, 138211000000, 
-0.0585133608897456, -0.1986846312452864, -0.49991205684627227, 138216000000, 
-0.0885191016544601, -0.1350066723979047, -0.49974769266055347, 138221000000, 
0.012893398004444744, -0.25599689610804904, -0.5002814115408775, 138226000000, 
-0.056397319772783845, 0.008028591108125482, -0.49952861660766457, 138231000000, 
-0.06444916804456155, -0.16962635963097877, -0.5001742809161828, 138236000000, 
0.0074052138986876355, -0.3054906693085813, -0.500218622772386, 138241000000, 
-0.11144680255833792, -0.03012639116052839, -0.49968580213327113, 138246000000, 
-0.07521987998219463, -0.18437528805447273, -0.5002035693563043, 138251000000, 
-0.008676312055503434, -0.3190942580156906, -0.4999065982181335, 138256000000, 
-0.0868578286095444, -0.038404301425575764, -0.4996678159312575, 138261000000, 
-0.0336604063496036, -0.23740014662921774, -0.5002743805447964, 138266000000, 
-0.08159801511644603, -0.032391762949545475, -0.49950608444968125, 138271000000, 
-0.0723946708978251, -0.1589390862574441, -0.5002447461699248, 138276000000, 
-0.01835615904895413, -0.24391751323800986, -0.49973890304650315, 138281000000, 
-0.0856843924252937, -0.05210043909290146, -0.49978918077790485, 138286000000, 
-0.04769118324653564, -0.14280010199831406, -0.5000718191137736, 138291000000, 
-0.024151940377514856, -0.25095843450884864, -0.49986928372910583, 138296000000, 
-0.07413141769290829, -0.037617910251568104, -0.49946436382220305, 138301000000, 
-0.03482944033053289, -0.14819843147948944, -0.5000449282144157, 138306000000, 
-0.0046726340132894305, -0.2538579339197801, -0.5000182327965254, 138311000000, 
-0.06768966714300699, -0.022313819400424827, -0.4998296880232631, 138316000000, 
-0.040668363117270775, -0.1607425159406164, -0.49954857672900327, 138321000000, 
-0.039909502032090274, -0.24495435493157525, -0.5003365569436075, 138326000000, 
-0.06871981413246359, -0.021914425558055325, -0.5002899726021767, 138331000000, 
-0.0477677561815088, -0.13717221327245374, -0.5003656308407921, 138337000000, 
-0.002777413615971277, -0.2694602507960928, -0.4998409192584652, 138342000000, 
-0.07031088015934026, -0.027574883928732002, -0.5001850874189168, 138347000000, 
-0.02458207751567671, -0.2831811121456944, -0.5003987878775661, 138352000000, 
-0.07167033098117351, -0.005658603907873802, -0.4998724609134683, 138357000000, 
-0.0382255700590987, -0.16069641404242002, -0.49966196953229974, 138362000000, 
0.010786934497530043, -0.25239448858108804, -0.4997747889295278, 138367000000, 
-0.09399426458277688, -0.06264410100744171, -0.4999508569097465, 138372000000, 
-0.07325000596897396, -0.1542070302989267, -0.5001137528169771, 138377000000, 
-0.019421825241981088, -0.2205120587102844, -0.49975294162414785, 138382000000, 
-0.11739043682982435, -0.06908014789551377, -0.49982767829027447, 138387000000, 
-0.03769013474300776, -0.15777795692913957, -0.5001573977886277, 138392000000, 
-0.04940150559633198, -0.13461503857115908, -0.49956490993338876, 138397000000, 
-0.06585357971599771, -0.15327458708898054, -0.49964272017228534, 138402000000, 
-0.01641955470510866, -0.25059362525994366, -0.5000200622304419, 138407000000, 
-0.07857662399727379, -0.039078908395185644, -0.5000492911211935, 138412000000, 
-0.061644848042007594, -0.1466344078942279, -0.5002275510997471, 138417000000, 
-0.035554159654401514, -0.23009366204110188, -0.49976487940009706, 138422000000, 
-0.06637415147498152, -0.03377869723018582, -0.5001587989915283, 138427000000, 
-0.07841059227887198, -0.17551785376653797, -0.5002501179031728, 138432000000, 
-0.04231790717389494, -0.23675350345942614, -0.4998712039927972, 138437000000, 
-0.08467148956008012, -0.027172390213004133, -0.49991650645503166, 138442000000, 
-0.05427738419132565, -0.15828610284458777, -0.500134664616871, 138447000000, 
-0.051297707486492386, -0.24334855567866062, -0.5003973664120497, 138452000000, 
-0.09260711266053875, -0.08695734249454333, -0.4999452257728411, 138457000000, 
-0.07590355976077642, -0.16901874683093213, -0.4998867200398252, 138462000000, 
-0.029552485596660755, -0.25430950408609815, -0.4998839344808626, 138467000000, 
-0.06547344396460243, -0.0381793917323183, -0.4997760104411977, 138472000000, 
-0.046404502025054604, -0.1780953862835321, -0.4999829580644376, 138477000000, 
0.0025304517870046415, -0.23480720966323398, -0.5001009754444314, 138482000000, 
-0.0679332815551744, -0.027901439635688512, -0.499494553030806, 138487000000, 
-0.026956120049545295, -0.1851680627339206, -0.4996730007049179, 138492000000, 
0.011567939982237832, -0.2756904185889174, -0.49997908332286584, 138497000000, 
-0.08498241589928444, -0.031195825165041987, -0.4997117186956057, 138502000000, 
-0.07716404986383028, -0.18451568608842184, -0.5001058078446757, 138507000000, 
-0.018590842267344393, -0.2546269432624208, -0.4999524341332316, 138512000000, 
-0.06765988161487593, -0.02463401163426858, -0.49969674240065964, 138517000000, 
-0.04152128403816865, -0.17961190418005196, -0.4997290956188289, 138522000000, 
-0.01118097591750386, -0.31301373839559743, -0.4999591787955218, 138527000000, 
-0.06720687844101848, -0.04102846242898324, -0.5002081690791977, 138532000000, 
-0.03443641770426244, -0.14919034473099418, -0.49986400588417, 138537000000, 
0.01118227317215495, -0.25074317171690713, -0.4999883400330632, 138542000000, 
-0.1037303717408329, -0.012488405530084526, -0.5000625535330019, 138547000000, 
-0.04883548670379259, -0.184917213138343, -0.5000560320416944, 138552000000, 
-0.02579424406883608, -0.26916932509865377, -0.49992987639866576, 138557000000, 
-0.09693536716505309, -0.021406275036862994, -0.4996856668298751, 138562000000, 
-0.04034185432484565, -0.28654985580062625, -0.4997775963164008, 138567000000, 
-0.053994448085469604, -0.022461326996568245, -0.5002485077416396, 138572000000, 
-0.08357304976077642, -0.16739182100225933, -0.5000977344661718, 138577000000, 
-0.03455091250010585, -0.2620416661470049, -0.4999957181197836, 138582000000, 
-0.07190315139762124, -0.028944047118317755, -0.5002710444566227, 138587000000, 
-0.07246250511346938, -0.1756276456315373, -0.5003756882751946, 138592000000, 
-0.05312410190325993, -0.1265933040124797, -0.49962916677733243, 138597000000, 
-0.06285083519107207, -0.10409205781647421, -0.5001373667923703, 138602000000, 
-0.031708298990626355, -0.24743885574008442, -0.4999644132347139, 138607000000, 
-0.1065974451947517, -0.00469038414139762, -0.49973628677158033, 138612000000, 
-0.05019279230410819, -0.17017794115717902, -0.5001721307532925, 138617000000, 
-0.02350314348065553, -0.2642537669599996, -0.49976247226327863, 138622000000, 
-0.077934549333725, 0.0026802883874100826, -0.4998233597065764, 138627000000, 
-0.06003472475295858, -0.19931561656925087, -0.5003573306188289, 138632000000, 
-0.03366713377202543, -0.2748673916755637, -0.49978234572665536, 138637000000, 
-0.0708066094410657, 0.018786307710315843, -0.4996729000367212, 138642000000, 
-0.06321374898482351, -0.151597956201937, -0.5003564214115316, 138647000000, 
-0.05404613277067167, -0.2697012371105148, -0.4999272208963224, 138652000000, 
-0.09681230054037195, 0.01706274636518604, -0.49980620040037077, 138657000000, 
-0.06236365110237685, -0.15910873058060496, -0.5002958632475244, 138662000000, 
-0.03863190224972435, -0.25403797362893066, -0.49958039169976304, 138667000000, 
-0.058923981051159605, -0.03014325605623543, -0.5000820407165881, 138672000000, 
-0.04864784709880056, -0.16073229387460933, -0.5000385216637977, 138677000000, 
-0.035327538258785166, -0.1462277513264055, -0.5000541432710084, 138682000000, 
-0.05900960484707183, -0.146673727073185, -0.5003228598191093, 138687000000, 
-0.02491051477233478, -0.25599049545839314, -0.5000670849114598, 138692000000, 
-0.07243784738053252, -0.07393078123004512, -0.4993684965087238, 138697000000, 
-0.03741586167845162, -0.12160651206919008, -0.49993557152845636, 138702000000, 
-0.028051397269679028, -0.27075447785964235, -0.4998103541497545, 138707000000, 
-0.09479391642069915, 0.006734130882574775, -0.500166743294807, 138712000000, 
-0.06738955174538147, -0.14594396610691382, -0.5002285657191724, 138717000000, 
-0.022693230707202004, -0.2704927026874462, -0.49965595869843604, 138722000000, 
-0.07440130629887742, -0.004285649355860115, -0.49995708966784735, 138727000000, 
-0.0548579010396935, -0.14941851580344698, -0.5000182381673391, 138732000000, 
-0.044270159851954385, -0.2686721480526316, -0.49951138127645434, 138737000000, 
-0.07910073402109098, -0.021854460258741788, -0.4999628620051367, 138742000000, 
-0.034735073621995946, -0.17633358014796013, -0.5001426798916893, 138747000000, 
-0.04980019561213253, -0.27767295705606965, -0.4997454602739344, 138752000000, 
-0.08669354940584778, -0.03577630374953941, -0.5002105369680898, 138757000000, 
-0.05361161010266196, -0.12402263722007521, -0.5000522694404764, 138762000000, 
-0.04696969998162823, -0.24722948710790804, -0.5000266774241705, 138767000000, 
-0.06269500545185597, -0.035361781195378084, -0.49984983547165135, 138772000000, 
-0.057566653922184186, -0.14569477396853595, -0.5000865946001253, 138777000000, 
-0.03811494035727314, -0.15838611318869453, -0.499985982213172, 138782000000, 
-0.038347332912368845, -0.1104944076676721, -0.4997466429988442, 138787000000, 
-0.024860550688878623, -0.2863180836022098, -0.49993351171635136, 138792000000, 
-0.06044994193114733, -0.0315939757201315, -0.500341043112082, 138797000000, 
-0.024072139689512825, -0.1806014396188694, -0.5003302060376037, 138802000000, 
-0.031481643787105745, -0.27824933237026284, -0.49979586831592004, 138807000000, 
-0.09066324231356751, -0.002971430104521385, -0.5000122762787453, 138812000000, 
-0.03564592455329538, -0.1693050547119748, -0.5000124061243337, 138817000000, 
-0.07449168073596057, -0.1622798059515324, -0.499963911662295, 138822000000, 
-0.08845755787246092, -0.15487979282778402, -0.500320567000849, 138827000000, 
-0.0484281833543133, -0.24384280827619986, -0.5001218492364707, 138832000000, 
-0.09168256685300041, -0.06393902303406013, -0.49964243890437127, 138837000000, 
-0.03810689774478197, -0.1652955487860345, -0.5002514302295004, 138842000000, 
-0.0013563940936596602, -0.27782656120503907, -0.49997169371600253, 138847000000, 
-0.05282214160986034, -0.014852133013796325, -0.49990903180724305, 138852000000, 
-0.060824788810364586, -0.17496088625856462, -0.49987537630240453, 138857000000, 
-0.09052897383353793, -0.26190575848585085, -0.4996159173407878, 138862000000, 
-0.12063619170133905, -0.04628173406283814, -0.49972517086615065, 138867000000, 
-0.03068773159696444, -0.18280915001268488, -0.5002138502365666, 138872000000, 
-0.03221047861142397, -0.27968407939281653, -0.49986777314282, 138877000000, 
-0.052758835434022155, -0.028327488160574524, -0.4997414803730089, 138882000000, 
-0.0578468314088518, -0.1581038767350028, -0.49998303757576606, 138887000000, 
-0.10249557087531676, -0.17644446522923074, -0.4995930881626791, 138892000000, 
-0.09568275168350585, -0.17412480427175464, -0.500044258294553, 138897000000, 
-0.03215084585339936, -0.24241360153006275, -0.500304462194804, 138902000000, 
-0.08816737459398666, -0.02198919058266325, -0.49996505594727325, 138907000000, 
-0.04645982685975673, -0.15947759466821815, -0.49991730767030684, 138912000000, 
-0.026004103025019282, -0.2503135213785104, -0.5001374076342823, 138917000000, 
-0.06886363191393326, -0.038006665425459774, -0.49957286142132307, 138922000000, 
-0.06359742511729023, -0.16909065819478308, -0.5000355319989094, 138927000000, 
-0.04902860436542307, -0.2850600874354936, -0.4998346842050933, 138932000000, 
-0.07668653401732976, 0.00269342240053122, -0.49958972375287464, 138937000000, 
-0.060240534802192144, -0.1400579431415394, -0.5002094040791663, 138942000000, 
-0.039852675744017615, -0.25881685315212233, -0.49969354237945046, 138947000000, 
-0.058402931790724935, 0.01459857375311267, -0.4999225388878967, 138952000000, 
-0.06133128338825361, -0.14590403693027237, -0.5002510782943578, 138957000000, 
-0.02791082923905737, -0.25908338441084383, -0.49975515966676765, 138962000000, 
-0.06438660172831981, 0.0008289938702694122, -0.49988349742732296, 138967000000, 
-0.009765355320447575, -0.15937525196046906, -0.49981269614275803, 138972000000, 
-0.04384400625815362, -0.16707547791668237, -0.49953510426567715, 138977000000, 
-0.05623893207285251, -0.13478995059317347, -0.5001095801140623, 138982000000, 
-0.07099166154183499, -0.27375245195672454, -0.5002216044213377, 138987000000, 
-0.0793886750349323, -0.01871529725255503, -0.49970579575799984, 138992000000, 
-0.05301121604859074, -0.1440472505205304, -0.5000043656449223, 138997000000, 
-0.04636852233171691, -0.28522361087871767, -0.4997750491799279, 139002000000, 
-0.07493817013152781, -0.038538458500817316, -0.49988012654060343, 139007000000, 
-0.06809403171535483, -0.19499879562308942, -0.5001792688949188, 139012000000, 
-0.027254372595224938, -0.29060890777407195, -0.49952199249174045, 139017000000, 
-0.05798349813879625, 0.013082184170794577, -0.5001457573941702, 139022000000, 
-0.03402559625748006, -0.2661170387189675, -0.5001299858499738, 139027000000, 
-0.07355442416162664, -0.05216461868554047, -0.5000898077546398, 139032000000, 
-0.0525043842741924, -0.17974635479935186, -0.5000190044477446, 139037000000, 
-0.0570259006119065, -0.2660124147235586, -0.5001426318316541, 139042000000, 
-0.08607893132560948, 0.0377694062529457, -0.4997739664707714, 139047000000, 
-0.044124524480620625, -0.21481504456748673, -0.49982039488724544, 139052000000, 
-0.08087324965813852, -0.16082018532715942, -0.49976988184587673, 139057000000, 
-0.06136837224989588, -0.14782752760197862, -0.49966963624011196, 139062000000, 
-0.06038598679797949, -0.2773306678701554, -0.49955318969575485, 139067000000, 
-0.08428773147597496, 0.0017353951279105793, -0.5000055922224507, 139072000000, 
-0.06158660241440376, -0.18071674688131337, -0.500559628467641, 139077000000, 
-0.057236454692165345, -0.2921678600958507, -0.49988290288808745, 139082000000, 
-0.04618366754944142, 0.010530342114045096, -0.5001350229823919, 139087000000, 
-0.05927187616627727, -0.17887013435036986, -0.5000224630240913, 139092000000, 
-0.04950527225134573, -0.1558157311914047, -0.5000677837094728, 139097000000, 
-0.04458724150392982, -0.12147135924255563, -0.49992768221742306, 139102000000, 
-0.04065302345762477, -0.2955927718795771, -0.4999344128269542, 139107000000, 
-0.0803109599668139, -0.00041824002870660074, -0.49995184690059824, 139112000000, 
-0.04165337316525905, -0.19550024729621462, -0.5001243084350938, 139117000000, 
-0.034507998240895794, -0.28515559374340615, -0.5002059784508753, 139122000000, 
-0.06808653168629138, 0.015786356274617788, -0.4994695826334206, 139127000000, 
-0.02499105785255564, -0.16009220477022507, -0.499721959678482, 139132000000, 
-0.03093768912230296, -0.29530768393518597, -0.5000529374439382, 139138000000, 
-0.048697309709506045, -0.018887034851855333, -0.49950283792179895, 139143000000, 
-0.05505532178086211, -0.16160561389207434, -0.5002292597295551, 139148000000, 
-0.0463397475181207, -0.33354594352053824, -0.5001623843786669, 139153000000, 
-0.05997956827664276, 0.008556346169048401, -0.49964363668156264, 139158000000, 
-0.05945057870706405, -0.1479890265665475, -0.5000824718348683, 139163000000, 
-0.04926088343392324, -0.2958233197127121, -0.4998034106258085, 139168000000, 
-0.09432017131205502, 0.019523265620968934, -0.5000222680338148, 139173000000, 
-0.024214964995803615, -0.2919032889072567, -0.49994711401915615, 139178000000, 
-0.03339537767992442, -0.02464636325715594, -0.49981948622659744, 139183000000, 
-0.06217904513631121, -0.1830772890476265, -0.500240143419216, 139188000000, 
-0.026306252366650358, -0.2782967449210811, -0.4997152870627825, 139193000000, 
-0.10443014178213944, -0.006857911566238032, -0.4999943835674292, 139198000000, 
-0.068459306637724, -0.17512225695126643, -0.5003435437727825, 139203000000, 
-0.049733886551310905, -0.15733556548868924, -0.49971633686708467, 139208000000, 
-0.06351932902182869, -0.14430990191602563, -0.5003669525961238, 139213000000, 
-0.0330531673655577, -0.2964751634843077, -0.4994588848301212, 139218000000, 
-0.09751634977966797, 0.03706194022575211, -0.4996561392149364, 139223000000, 
-0.05932370348443072, -0.1553881678963647, -0.5001126274925267, 139228000000, 
-0.023763699943412698, -0.16798591731885054, -0.49946949855044137, 139233000000, 
-0.05489877007844842, -0.126430374610631, -0.4995746885972957, 139238000000, 
-0.02661341262963012, -0.15950888539569108, -0.50039332389434, 139243000000, 
-0.051730584908427406, -0.17779883885240136, -0.4997508877193887, 139248000000, 
-0.05959559642735573, -0.18142801422324964, -0.49985304642943235, 139253000000, 
-0.024895625395074523, -0.27414013706656176, -0.5003254996336909, 139258000000, 
-0.0686354992264056, -0.006225493128700302, -0.4999807998656015, 139263000000, 
-0.05426672920415327, -0.1518111657854307, -0.5003274172069242, 139268000000, 
-0.0592694240639496, -0.36987805773598653, -0.4995678106203986, 139273000000, 
-0.09989456161667157, 0.01279226189986223, -0.5000052266143479, 139278000000, 
-0.03729851572478024, -0.18177281413727714, -0.500284256442319, 139283000000, 
-0.02635676230036798, -0.30413517547601, -0.49995511606229803, 139289000000, 
-0.05149688705502482, 0.005614387456106707, -0.5005429348569007, 139294000000, 
-0.08500226018829223, -0.1744856374916282, -0.5002526487082026, 139299000000, 
-0.08241298197101174, -0.1707239175702376, -0.49976176763680513, 139304000000, 
-0.05849632819351754, -0.14183560344984358, -0.49994464601937916, 139309000000, 
-0.024263338721500684, -0.2889059349037764, -0.5000874489815573, 139314000000, 
-0.07540387048783002, -0.009724814923866365, -0.4994837215680442, 139319000000, 
-0.07518551944768057, -0.16416080354218177, -0.49965163051714, 139324000000, 
-0.046154045200314714, -0.2840427108492335, -0.49977991953767525, 139329000000, 
-0.05092900488404987, 0.04969964459833756, -0.49973801088286157, 139334000000, 
-0.05319036659488899, -0.17161930658877453, -0.5001111859234506, 139339000000, 
-0.03177527924445466, -0.2509861205503851, -0.5000025448686124, 139344000000, 
-0.11270167774025523, 0.0488234746363581, -0.4999044099667938, 139349000000, 
-0.02850272660431449, -0.1785547779274631, -0.5001382253176594, 139354000000, 
-0.03308970274464464, -0.29897589912733663, -0.49953855948371056, 139359000000, 
-0.08954605841713945, 0.009367555671508333, -0.49997376610292055, 139364000000, 
-0.04086399194716999, -0.15635343579357422, -0.5003149664557205, 139369000000, 
-0.06769896409512884, -0.1980795378541107, -0.499810726384309, 139374000000, 
-0.08211174766615432, -0.11934722007307107, -0.4998698049338168, 139379000000, 
-0.039063081219582525, -0.28057065009145904, -0.5000085604253128, 139384000000, 
-0.0722343547558932, 0.011356997911238285, -0.4998360029487369, 139389000000, 
-0.06575841201124524, -0.17683714694956373, -0.49984751388612975, 139394000000, 
-0.027532986971630872, -0.28416311086529866, -0.4998489748101045, 139399000000, 
-0.12925433533605502, 0.038336414783291535, -0.49977456231303213, 139404000000, 
-0.054521015466490144, -0.15760400461344293, -0.49990024004300393, 139409000000, 
-0.05927239667018312, -0.31525508455408285, -0.4996033713841162, 139414000000, 
-0.06836706210695373, 0.023402263602561247, -0.4998280609013693, 139419000000, 
-0.05407583155555887, -0.1629710105070458, -0.5003439968708792, 139424000000, 
-0.04688328550413093, -0.31267210468687995, -0.4995871514080681, 139429000000, 
-0.0757908512806216, -0.011628954336765595, -0.4999897466910471, 139434000000, 
-0.03410437701609764, -0.30607244935910116, -0.4999140580190456, 139439000000, 
-0.08960232602825728, 0.001163140793280149, -0.4999892202833743, 139444000000, 
-0.04122677866276593, -0.1850204107473991, -0.4999416849919485, 139449000000, 
-0.022405752171772812, -0.279560012059507, -0.4996795600617828, 139454000000, 
-0.0795414959115627, 0.022594746775181137, -0.5000061524025832, 139459000000, 
-0.031465272428183505, -0.1348052036134059, -0.500264540322264, 139464000000, 
-0.08639394216488949, -0.12158541502907946, -0.49966751271405363, 139469000000, 
-0.05783891792306382, -0.12936125839683654, -0.5001920187737451, 139474000000, 
-0.022829992853960684, -0.2998438710959108, -0.5001720063978189, 139479000000, 
-0.1124854163237354, 0.052265773792795386, -0.49975420960792005, 139484000000, 
-0.047947732710241865, -0.13704557967637715, -0.5001807533825613, 139489000000, 
-0.012216319628635492, -0.30142886783378187, -0.499903418172725, 139494000000, 
-0.14082307575469852, 0.030005831435392517, -0.4996603101394749, 139499000000, 
-0.0841292753044012, -0.17277491737856682, -0.500087764452068, 139504000000, 
-0.027991276514284028, -0.34882042685826964, -0.4997911729717807, 139509000000, 
-0.07039942126731341, 0.019434799797116386, -0.4996798703997851, 139514000000, 
-0.0649205082173772, -0.17656028563178594, -0.5002999525575588, 139519000000, 
-0.034548775555593006, -0.3382053387727845, -0.49987896883327876, 139524000000, 
-0.0794604676891964, 0.02374475555497453, -0.4996044013168918, 139529000000, 
-0.03178194623969982, -0.14814333670009616, -0.5002357660155446, 139534000000, 
-0.014673239692463575, -0.3216177748603546, -0.5000391172040987, 139539000000, 
-0.09171141780240002, 0.044259312617226945, -0.49987127996998065, 139544000000, 
-0.07005676939397103, -0.14416103375195408, -0.49972293040610855, 139549000000, 
-0.033730317616720705, -0.3160106068498029, -0.5001197561417527, 139554000000, 
-0.09864024089745108, 0.0483930699138641, -0.49999009486693935, 139559000000, 
-0.053050340798574555, -0.1667018605534824, -0.5002466497587451, 139564000000, 
-0.05182540664343384, -0.32995034930380923, -0.5000523524841596, 139569000000, 
-0.08969250382515445, 0.04775948587334219, -0.5001582129650285, 139574000000, 
-0.06692212469442103, -0.16946372416395386, -0.49988990952846596, 139579000000, 
-0.03505502881624471, -0.260741382208139, -0.5000644535978668, 139584000000, 
-0.08612575441608382, 0.014234707014555401, -0.499758124929684, 139589000000, 
-0.0775806209505964, -0.14831073054355443, -0.5001997743480786, 139594000000, 
-0.00954005015133929, -0.32543892569365196, -0.49976891505189913, 139599000000, 
-0.12169764560305371, 0.01939823507076721, -0.4995251598995111, 139604000000, 
-0.04548144497721725, -0.1633571054637503, -0.5001405609632449, 139609000000, 
-0.005382313402162019, -0.3209406159825302, -0.4996169950360044, 139614000000, 
-0.10427809833153867, 0.04062235629894151, -0.49983621328433375, 139619000000, 
-0.03909618503236055, -0.3058071981885998, -0.5002010292117546, 139624000000, 
-0.10254915905127436, -0.0023791151977217324, -0.49987090324765426, 139629000000, 
-0.056133508271753424, -0.18615304196036164, -0.5001117930054464, 139634000000, 
-0.015765919311212694, -0.3256975570017856, -0.49973061035037686, 139639000000, 
-0.12979144936646442, 0.06857351500031336, -0.5000492451679992, 139644000000, 
-0.05502971572102899, -0.12599721800744187, -0.5003881510122388, 139649000000, 
-0.01682815151791058, -0.28642493121560275, -0.4998948189356723, 139654000000, 
-0.07862845019594031, 0.04071034546479253, -0.49981877685641696, 139659000000, 
0.007144322779447546, -0.2837862503539449, -0.5002405807604506, 139665000000, 
-0.09259876262574068, 0.029362820285507962, -0.499790172058274, 139670000000, 
-0.07474111850013718, -0.19643553138323638, -0.5000622235030812, 139675000000, 
1.3515287440637666e-05, -0.3508633708141169, -0.4998730683432578, 139680000000, 
-0.09465363685702344, -0.008463121727198535, -0.49999117501131, 139685000000, 
-0.06565319096999003, -0.15769678308700835, -0.5003038369587586, 139690000000, 
-0.0008638554784382753, -0.3298430337208129, -0.5001240718272602, 139695000000, 
-0.11462703887257496, 0.04424385493882407, -0.5001440063988971, 139700000000, 
-0.05153529736369262, -0.17067929874642476, -0.5002487492931761, 139705000000, 
0.013846755793631843, -0.34626445369868053, -0.49973658314047703, 139710000000, 
-0.11731478069613215, 0.03266109263250157, -0.49969975049318466, 139715000000, 
-0.05154313748622119, -0.19212388668954739, -0.4998717390450672, 139720000000, 
-0.010398349108244455, -0.32619344433841946, -0.4995956727928525, 139725000000, 
-0.13700487174590428, 0.0991481335210436, -0.5000585305562344, 139730000000, 
-0.03513808293988577, -0.1545157967454261, -0.49997510821033103, 139735000000, 
-0.006054046858692567, -0.3560294001564978, -0.49973977328270924, 139740000000, 
-0.1139098144091441, 0.03292320858634648, -0.49991440747263455, 139745000000, 
-0.06682472655893318, -0.17715690693751102, -0.500114352446245, 139750000000, 
0.021754401334200316, -0.34550611550619176, -0.49992782008560704, 139755000000, 
-0.12378554744884213, 0.008609367612314713, -0.5001290545984284, 139760000000, 
-0.030167918520038313, -0.1779752027774158, -0.5000196167040604, 139765000000, 
0.0076509792100772165, -0.3457862176281884, -0.49979496917708216, 139770000000, 
-0.11924735274387674, 0.0822867717923741, -0.49977157696839625, 139775000000, 
-0.03895823914107961, -0.1678949405892666, -0.5003749190520388, 139780000000, 
0.017493881432324776, -0.3426515919408732, -0.4999557328589312, 139785000000, 
-0.15356744965632524, 0.023087424492093403, -0.49986385121736, 139790000000, 
-0.02363605041772722, -0.16533281205210396, -0.5001435582170805, 139795000000, 
0.017901522346959787, -0.30505833059969933, -0.4999340397936426, 139800000000, 
-0.14204591863358748, 0.08333540444883444, -0.4997280346149885, 139805000000, 
-0.06898126121525965, -0.1866068768785551, -0.5002161250076589, 139810000000, 
0.030295921298127998, -0.33013972750783105, -0.50006042908576, 139815000000, 
-0.15920095591507818, 0.04296850979092017, -0.4997835413327809, 139820000000, 
-0.04477680473147978, -0.17557699809757307, -0.5003929689133979, 139825000000, 
-0.0032400162253485645, -0.3289077518945922, -0.4997033454241434, 139830000000, 
-0.15906168545882818, 0.06251194809225119, -0.49979344725994834, 139835000000, 
-0.028389351227894936, -0.1359756549152403, -0.5001816440506294, 139840000000, 
0.03009458769660241, -0.33212991855521684, -0.499888360429957, 139845000000, 
-0.1235055249203824, 0.06356560098931735, -0.5002645206721374, 139850000000, 
-0.07461354981119836, -0.17782644357959915, -0.49968531334968513, 139855000000, 
0.05473070297489152, -0.3568734092525696, -0.4996859696169819, 139860000000, 
-0.1461391261299034, 0.06111527244629514, -0.49969809036143725, 139865000000, 
-0.05693455007196477, -0.16652905702638926, -0.5004460833667733, 139870000000, 
0.037216107409124524, -0.33842717212363455, -0.499999220543692, 139875000000, 
-0.18336108820106584, 0.053044593019311546, -0.4997144528162512, 139880000000, 
-0.05918102174715339, -0.18152510765893598, -0.5003829326611876, 139885000000, 
0.0654039518877186, -0.3473655151419263, -0.4996825768590316, 139890000000, 
-0.15161555419709666, 0.018293053899034593, -0.5000062695947634, 139895000000, 
-0.04690738430587635, -0.1627923998600985, -0.5001635396419275, 139900000000, 
-0.05428106557598304, -0.17571063607161164, -0.4996346879828939, 139905000000, 
-0.06580566631792482, -0.1251729939875249, -0.5002366871315079, 139910000000, 
-0.014647114230980661, -0.3688397258838469, -0.5000902936872609, 139915000000, 
-0.1617413392505299, 0.05582147300128694, -0.4997875499780175, 139920000000, 
-0.03141429320415805, -0.15976072871604027, -0.500178785742025, 139925000000, 
0.05459444692750422, -0.36314876902535753, -0.49969618427600015, 139930000000, 
-0.1454166696375465, 0.026740768794821235, -0.49996419173634593, 139935000000, 
-0.0764592682608941, -0.18549547456985827, -0.5000009177448265, 139940000000, 
-0.04540995161292999, -0.17327285125311012, -0.4997233749117517, 139945000000, 
-0.05618290159299591, -0.1357925689262341, -0.5001027574307229, 139950000000, 
0.007168207470320591, -0.3526404153700029, -0.5003882857968222, 139955000000, 
-0.11496761273040482, 0.10832023901786625, -0.4996219354049811, 139960000000, 
-0.08082341884953481, -0.1727839386031182, -0.5003859109650601, 139965000000, 
0.026202434936601536, -0.33299925725591784, -0.4999147541652226, 139970000000, 
-0.16071671392201065, 0.050255627662777226, -0.4996585480551725, 139975000000, 
-0.06602834544343567, -0.16233225032717588, -0.500200986940027, 139980000000, 
0.023856049202070545, -0.36565011767343925, -0.5001611482927691, 139985000000, 
-0.13905957685053116, 0.06877486448821321, -0.49951791983689625, 139990000000, 
-0.04234555596386846, -0.14925065743424235, -0.5002441289299584, 139995000000, 
0.004093330925349095, -0.3588367235816049, -0.5001392722809147, 140000000000, 
-0.14693353706129922, 0.08895857385874589, -0.4995379875653989, 140005000000, 
-0.06236800059797069, -0.18013884292532886, -0.5002649520477512, 140010000000, 
0.022928417520530327, -0.36473066572228563, -0.5000530557088494, 140015000000, 
-0.1509892283443765, 0.0506482863487725, -0.4999897843257157, 140020000000, 
-0.05337247939759196, -0.15699891771176125, -0.5000999618948436, 140025000000, 
0.02460686662029339, -0.36357861424030263, -0.4998404157835042, 140030000000, 
-0.13457449877392041, 0.08083872374873169, -0.49983226239102324, 140035000000, 
-0.03592386415526452, -0.15103733306341613, -0.5004675077908344, 140040000000, 
0.0298104710027281, -0.37742926018223155, -0.4999517008391534, 140045000000, 
-0.12835265013501815, 0.045123256087645995, -0.4998102724462359, 140050000000, 
-0.07504210563067178, -0.14696281207622153, -0.49976399807258304, 140055000000, 
0.03015603869353653, -0.3374823275179164, -0.5000382496310505, 140060000000, 
-0.1696771517671961, 0.05177158789237868, -0.4999452805100116, 140065000000, 
-0.08480942405648895, -0.1351915388947611, -0.5003267363499795, 140070000000, 
0.045503245842356405, -0.35974950153547564, -0.49985911056193766, 140075000000, 
-0.18083739741288718, 0.07075437638047723, -0.5000695810916336, 140080000000, 
-0.06166091807486905, -0.1360474020625293, -0.4999463305046513, 140085000000, 
0.07648533363325202, -0.36264051734367847, -0.49969317414695, 140090000000, 
-0.17611449225443598, 0.08019799694234457, -0.5005535922972151, 140095000000, 
0.009835895701934248, -0.33816584792613774, -0.4999337045507701, 140100000000, 
-0.14497218255570232, 0.03796970392431402, -0.49984825982204484, 140105000000, 
-0.03111200637984281, -0.13040445676821844, -0.5003025001156567, 140110000000, 
0.03132052344280865, -0.3674249307414372, -0.4996066983129344, 140115000000, 
-0.12461244621694857, 0.007187509589581247, -0.5002768235843846, 140120000000, 
-0.07378683359749504, -0.1772148640786723, -0.5002320060579135, 140125000000, 
-0.04239338396615667, -0.18332967589791027, -0.499949780198798, 140130000000, 
-0.0808151149271014, -0.10105322749893664, -0.500033573114146, 140135000000, 
0.029425022096992024, -0.3284172161055043, -0.5002753793747022, 140140000000, 
-0.11245842365287073, 0.033952095184654654, -0.5002775329167815, 140145000000, 
-0.08442614728020253, -0.1827968287343356, -0.5000279117336635, 140150000000, 
0.005754796247784834, -0.3210133602535381, -0.5000753324490207, 140155000000, 
-0.12527769658169086, 0.10024959392580012, -0.49966414945582005, 140160000000, 
-0.058584141097450644, -0.16088250730445694, -0.5001893310388968, 140165000000, 
0.0008265998776657256, -0.351606573329222, -0.499953643211313, 140170000000, 
-0.1573891283901397, 0.06029037152672958, -0.4999781978217476, 140175000000, 
-0.04629206253854016, -0.16255576685379303, -0.5004434731315871, 140180000000, 
-0.02039786861528503, -0.3683512094498399, -0.4995285424232409, 140185000000, 
-0.1551777975928055, -0.005071401211529006, -0.5001134840867025, 140190000000, 
-0.03777473326465161, -0.1433587327907375, -0.499737887374574, 140195000000, 
0.021815449355990724, -0.3275775206020858, -0.4996757334840168, 140200000000, 
-0.11560803178334364, 0.054742522231091356, -0.4997024568628694, 140205000000, 
-0.052633735508881764, -0.16618101774529204, -0.5000501270173191, 140210000000, 
-0.004146661660785773, -0.32254919582287417, -0.499813964358454, 140215000000, 
-0.11794741914117991, 0.003015192836563471, -0.5001011613239892, 140220000000, 
-0.02060989457807337, -0.16111781305141498, -0.5003758492996059, 140225000000, 
0.03710723685794919, -0.345475240367616, -0.4994711323486329, 140230000000, 
-0.14032893869042198, 0.03194577459826677, -0.5001090769731945, 140235000000, 
-0.05342183131126187, -0.15290946491708315, -0.5001335180013036, 140240000000, 
-0.00906861801434217, -0.29583184579973615, -0.4995584081998118, 140245000000, 
-0.16268712714964195, 0.015130077261911758, -0.5001855746441657, 140250000000, 
-0.03814166447543607, -0.14073586048715037, -0.4999788338779679, 140255000000, 
0.04012226184197203, -0.33936883655740235, -0.49959723081764496, 140260000000, 
-0.11944823801727411, 0.029568079936651268, -0.5000896261089134, 140265000000, 
-0.03375041654656856, -0.1784321477178158, -0.5002226144228565, 140270000000, 
-0.05585133064185327, -0.1495982249686958, -0.4996866816234709, 140275000000, 
-0.05181679097579664, -0.160330050282299, -0.4998143979368753, 140280000000, 
0.003579981049576164, -0.3262901076000947, -0.5000215408357646, 140285000000, 
-0.1155791447569879, 0.05077266511264396, -0.49973660152460053, 140290000000, 
-0.033068609822734574, -0.14972647755584859, -0.5000876369791272, 140295000000, 
0.04226431731207801, -0.3551421161181932, -0.5000397415111938, 140300000000, 
-0.15094069727125614, 0.05300670361448895, -0.5000573725153022, 140305000000, 
-0.04552823447590283, -0.16751508024366532, -0.4999788146273474, 140310000000, 
0.034193369035909395, -0.37102226947235645, -0.4995931142179227, 140315000000, 
-0.11473924842905998, 0.029487889577588508, -0.500057522728015, 140320000000, 
-0.06890793535125304, -0.1727019216358631, -0.5000729412030058, 140325000000, 
-0.02094016121679073, -0.1687712898654921, -0.49972360650977554, 140330000000, 
-0.07860280350400689, -0.09388645343082913, -0.5003556447377631, 140335000000, 
0.0017369599821882645, -0.34717513379766324, -0.49930078238218495, 140340000000, 
-0.13564400402394122, 0.0011187102259231085, -0.499882048001408, 140345000000, 
-0.07282283045775634, -0.16725378413054626, -0.49996385541352334, 140350000000, 
-0.03903704051362426, -0.36094322418068725, -0.4996477857876557, 140355000000, 
-0.11320917358149468, 0.0351340765171742, -0.49985815977019876, 140360000000, 
0.05126802846182889, -0.32275085263188996, -0.5000404015794749, 140365000000, 
-0.1239867424608566, 0.012184277634101404, -0.49982606538997526, 140370000000, 
-0.06840312172950735, -0.12012873643619996, -0.5000596808177794, 140375000000, 
0.03652320341554959, -0.3731678711778189, -0.5001940985573095, 140380000000, 
-0.09204210194782655, -0.008202606622129118, -0.4996806189767967, 140385000000, 
-0.05856190980928042, -0.10097745764378697, -0.5000366224158174, 140390000000, 
-0.03156953098092936, -0.3306175031014902, -0.4997667961753677, 140395000000, 
-0.07893269691465439, -0.03518928226834032, -0.49998347459342557, 140400000000, 
-0.10101025345142722, -0.12305099260283232, -0.4999027729178075, 140405000000, 
0.036277609840675275, -0.289125898148207, -0.5003898759801496, 140410000000, 
-0.11637148679353396, 0.005455027714570289, -0.4998548821506375, 140415000000, 
-0.10351071740950848, -0.12807908538492158, -0.5000822046611675, 140420000000, 
-0.00747440512134011, -0.34322953771635806, -0.500276701127222, 140425000000, 
-0.10104067625603928, 0.012701098711348741, -0.4997869377662883, 140430000000, 
-0.08209220641871076, -0.10321264697476848, -0.5000550631108841, 140435000000, 
0.005955440875240057, -0.3232798845516143, -0.5002152005639328, 140440000000, 
-0.1302311034634217, 0.032370723926186916, -0.5000881730388517, 140445000000, 
-0.07362185988794806, -0.14460256979535235, -0.5002598266488604, 140450000000, 
0.0003855365213036874, -0.31632760946897726, -0.500513927261029, 140455000000, 
-0.12114925536042455, 0.023951467024086518, -0.49957231069466335, 140460000000, 
-0.07834988647996811, -0.14700705338514497, -0.49960461839963244, 140465000000, 
-0.00398537099931429, -0.34519292938192914, -0.49983362876330933, 140470000000, 
-0.09748966116954717, -0.010218362610911974, -0.49969919536820073, 140475000000, 
-0.05259157361502383, -0.10950554418719458, -0.49998167617210154, 140480000000, 
-0.001666017336727563, -0.3447434849306676, -0.5005243298888301, 140485000000, 
-0.07185254231598825, 0.014542281896531601, -0.4999491752602364, 140490000000, 
-0.05677998860227265, -0.17993664345625515, -0.5003079101329019, 140495000000, 
0.017011853035985687, -0.3454133204870137, -0.49963767314418295, 140500000000, 
-0.12796614185482855, 0.06306223943865687, -0.4997844493771662, 140505000000, 
-0.07926306339144472, -0.199999282449978, -0.5000310853977397, 140510000000, 
-0.06363046123246079, -0.15958220713586335, -0.4998342655920033, 140515000000, 
-0.07856740076702194, -0.108310383849909, -0.500033205193002, 140520000000, 
0.015716963931641483, -0.3653973877626151, -0.4998034488246577, 140525000000, 
-0.11271024313434538, 0.02333834826914561, -0.500064563871483, 140530000000, 
-0.07362766461510359, -0.17709788899119555, -0.4999899865068138, 140535000000, 
0.023123195265402536, -0.3624122097296585, -0.4997060745053361, 140540000000, 
-0.10596536807035359, 0.08495702502791938, -0.49969289950460005, 140545000000, 
-0.04051067405678186, -0.1926284298981828, -0.5004233592709073, 140550000000, 
0.03354577864250579, -0.3315500152181501, -0.499787303808038, 140555000000, 
-0.12609709646623737, 0.013875274950337371, -0.49985570864313456, 140560000000, 
-0.03924783825928317, -0.15156901065884737, -0.50015506264199, 140565000000, 
-0.04820096049977988, -0.13487721517950313, -0.49955233146524336, 140570000000, 
-0.07762503375508523, -0.1177294391449771, -0.500156114854062, 140575000000, 
-0.009887138344579195, -0.32174878141936836, -0.5001481812972532, 140580000000, 
-0.10360687240193792, 0.031660736729428825, -0.5000595966623221, 140585000000, 
-0.04957052304806746, -0.15223656278463127, -0.4998019230579302, 140590000000, 
-0.013604854100133491, -0.33171772684061807, -0.4997648210337457, 140595000000, 
-0.10641467880999789, 0.007066433438373865, -0.4997087278248911, 140600000000, 
-0.015638326900942523, -0.17998621634186698, -0.5000768806526248, 140605000000, 
0.012249842674744153, -0.33995308510970357, -0.4992675688318474, 140610000000, 
-0.12308431767041673, 0.045848113688169906, -0.4999108997327245, 140615000000, 
-0.05776526905889709, -0.1666233728794054, -0.5001372842694621, 140620000000, 
-0.0014720702787624287, -0.3388798088437829, -0.49994744716356276, 140625000000, 
-0.12738848781616377, 0.05043518090120863, -0.49972912858213936, 140630000000, 
-0.08856627585307741, -0.1916567427623013, -0.49994336131477946, 140635000000, 
-0.010918782756017563, -0.3269359618390926, -0.4997506872675692, 140640000000, 
-0.13469304017211273, 0.06614941172125735, -0.49985088401287237, 140645000000, 
-0.042586893584616925, -0.1713786981978971, -0.500070719874097, 140650000000, 
0.034264585292971945, -0.34693150576981624, -0.4999521668730782, 140655000000, 
-0.1258152743296013, 0.05960719102379342, -0.49965814551828197, 140660000000, 
-0.046689690418806024, -0.17710302499382313, -0.5002110861976156, 140665000000, 
0.01505351797394671, -0.27793687494822605, -0.4995246336011746, 140670000000, 
-0.1273294242894481, 0.02605281385755963, -0.4998814293821842, 140675000000, 
-0.05245051534779381, -0.1293273043330357, -0.5002978436261668, 140680000000, 
0.010573689935432814, -0.34068677276379294, -0.4999156350046492, 140685000000, 
-0.12234951113749071, 0.04325612605568748, -0.5000806465814253, 140690000000, 
-0.059163241194829026, -0.1694121079316821, -0.5000620231982534, 140695000000, 
-0.048397449341287695, -0.15912488284479176, -0.49955500000324876, 140700000000, 
-0.0805234003754867, -0.17321411465318248, -0.4998564480163769, 140705000000, 
-0.013492809716333456, -0.3019566720344409, -0.5001201008313889, 140710000000, 
-0.10983444704898021, 0.004762027751453152, -0.4998548240346491, 140715000000, 
-0.059323636565461454, -0.1692514371333662, -0.49999238798671297, 140720000000, 
-0.018363726116354152, -0.28312462066347566, -0.49978831750372266, 140725000000, 
-0.14587013926935682, 0.056221701884000747, -0.5005200247126974, 140730000000, 
-0.07457588321287333, -0.15359554257495195, -0.5001419883114854, 140735000000, 
-0.02299735234321689, -0.13593072933429534, -0.500084213769805, 140740000000, 
-0.05178735383205079, -0.12466389128000198, -0.4999805253202686, 140745000000, 
-0.005023120515131686, -0.34562327213333366, -0.4997690515062209, 140750000000, 
-0.11141384902824478, 0.0678012483876766, -0.49993713662546974, 140755000000, 
-0.035880048544441184, -0.1798790216400708, -0.499682806599149, 140760000000, 
0.03536371934548221, -0.3278079669263417, -0.49994407326610496, 140765000000, 
-0.1035964090084061, 0.028911497231529, -0.49947819410650635, 140770000000, 
-0.05952951217448924, -0.18221279089556602, -0.5000474388340828, 140775000000, 
0.040224340423085786, -0.31709172353944026, -0.500143795002407, 140780000000, 
-0.13062204535486097, 0.01835547840997126, -0.4998096294059034, 140785000000, 
-0.04810943729341826, -0.16016952880976482, -0.4999454534260463, 140790000000, 
-0.005103681305496419, -0.2642521724592077, -0.49985524700583706, 140795000000, 
-0.1433988615193727, 0.013880880050606077, -0.49992239536967503, 140800000000, 
-0.06610413985965517, -0.19608722718255342, -0.4998914074934126, 140805000000, 
0.010405469178747684, -0.3214708413260039, -0.49987661602734595, 140810000000, 
-0.11622273998493676, 0.0018413082052390305, -0.499942032020838, 140815000000, 
0.001926776316527358, -0.30656767183526734, -0.5002649107133941, 140820000000, 
-0.1003598493595618, -0.010213779135088521, -0.49971903690048525, 140825000000, 
-0.05317989942464798, -0.16343157710253625, -0.49999173290951554, 140830000000, 
-0.02031976365809665, -0.2806671103651125, -0.5001430037416583, 140835000000, 
-0.10278758115883314, -0.03696000653110579, -0.49992806462325773, 140840000000, 
-0.06367019400184311, -0.1575132836506426, -0.5002308875931907, 140845000000, 
0.020130285801866023, -0.32902051044888303, -0.4999412423081817, 140850000000, 
-0.07923447940911958, -0.010752119070783286, -0.4999557565619946, 140855000000, 
-0.049825715966141944, -0.185410728428822, -0.49988081477517293, 140860000000, 
0.0034077525843855955, -0.1536067625340902, -0.5001616046051653, 140865000000, 
-0.09918979817574601, -0.14710772473499437, -0.5001512255466332, 140870000000, 
0.023230569175580383, -0.25228306211290646, -0.49946932531460136, 140875000000, 
-0.13893283498708472, 0.022336230529681995, -0.5000569790423939, 140880000000, 
-0.011311115863138172, -0.2974621494101734, -0.5002441825109192, 140885000000, 
-0.12386916000407722, -0.008323966635682457, -0.49989603906594793, 140890000000, 
-0.05861175056558567, -0.1822416246080974, -0.500204085082625, 140895000000, 
0.017434263725219112, -0.31266198819625685, -0.49985693147579446, 140900000000, 
-0.11981622305107052, -0.0016150939366728042, -0.4998791447635237, 140905000000, 
-0.03863584679951388, -0.28527366283804456, -0.5003030084006019, 140910000000, 
-0.10018767338475801, -0.03947105926967867, -0.4997957517896708, 140915000000, 
-0.05215598259568915, -0.13801399587930044, -0.4996728848260296, 140920000000, 
0.03381191715462332, -0.28607322072308333, -0.5004305915864371, 140925000000, 
-0.143675823561902, -0.007704534314328649, -0.4997483587247462, 140930000000, 
-0.038987336728397715, -0.15715087073211892, -0.5000156245041536, 140935000000, 
0.008749035467250692, -0.30669166025340333, -0.4997214631621076, 140940000000, 
-0.11788507229944367, 0.008411608102227835, -0.4998266194185921, 140945000000, 
-0.06748720849017226, -0.15146590398605878, -0.5003454963770251, 140950000000, 
-0.034554958591473096, -0.1705352381735374, -0.4998432495910272, 140955000000, 
-0.047675816565096125, -0.14595382797917952, -0.5003924060041147, 140960000000, 
-0.0194195707608405, -0.27529664313298413, -0.5000538106355293, 140965000000, 
-0.10776672716855082, 0.052454121126239456, -0.4997991821216434, 140970000000, 
-0.059485026650497264, -0.1881794731855446, -0.49996725619584587, 140975000000, 
-0.010669531184687817, -0.29316474616464583, -0.49993428031886306, 140980000000, 
