acc_x, acc_y, angular_z, stamp, 
-0.041257687475268257, -0.15002911923625417, -0.5003883254257895, 145977000000, 
0.022402834523215273, -0.34563551445971397, -0.5000096384512104, 145982000000, 
-0.11172523408366716, 0.053918388614561955, -0.5000964172177836, 145987000000, 
-0.0422309682079851, -0.16513926001966614, -0.49991423844574184, 145992000000, 
-0.006785869710640874, -0.35241914125980317, -0.49980478948912344, 145997000000, 
-0.12511514936253712, 0.05226380500923186, -0.5001147365536376, 146002000000, 
-0.03314280096157918, -0.1492927447409365, -0.49986808814457123, 146007000000, 
0.02117936971165523, -0.34171809926314556, -0.4996565736634198, 146012000000, 
-0.13067654631249623, 0.04233174575264127, -0.4999812385436339, 146017000000, 
-0.06374556929409977, -0.12083839906280766, -0.4998251467900462, 146022000000, 
0.015175356277402335, -0.3537724719529423, -0.4999822606811143, 146027000000, 
-0.13818694881947413, 0.05368350544585757, -0.49976159543726556, 146032000000, 
-0.044250494878214044, -0.16993688888080938, -0.5005212289458874, 146037000000, 
-0.007759467904140501, -0.34254248973279866, -0.4998743982336196, 146042000000, 
-0.11796341372145822, 0.08207176214652832, -0.49989151554541034, 146047000000, 
-0.047876228145440056, -0.17142362255184448, -0.500697329527889, 146053000000, 
0.01691529052486013, -0.35740491803886804, -0.4996782479426983, 146058000000, 
-0.14389096511926427, 0.036794536096651675, -0.49997922300997055, 146063000000, 
-0.038059676636628376, -0.14865056857331874, -0.5002086956894334, 146068000000, 
-0.0034183762198997485, -0.34299337270009694, -0.49965678546606795, 146073000000, 
-0.12852932934987113, 0.05757389808012792, -0.5000564814350332, 146078000000, 
-0.05932883472397522, -0.1593757651915493, -0.5006278922616818, 146083000000, 
-0.04106744229513148, -0.18230575444609626, -0.500016970013499, 146088000000, 
-0.3184479237660665, -0.10823103526508311, -0.4608545502812287, 146093000000, 
0.5784329987823336, -0.5981083967444435, -0.3992150649422956, 146098000000, 
0.3392411594755174, -0.2062240141417925, -0.3058917524469851, 146103000000, 
0.23257354912376227, -0.28283838040699305, -0.2369401199800928, 146108000000, 
0.4593034428912114, -0.3743638558176589, -0.1477789269552478, 146113000000, 
-0.4008211734550598, 0.08523089338993543, -0.06167107961619081, 146118000000, 
0.327642248155625, -0.2313289055585133, 0.017557621686883407, 146123000000, 
-0.6618288391510183, 0.4139741981590714, 0.09075963165238926, 146128000000, 
-0.6419644455249898, 0.22447403211447947, 0.16194624592856632, 146133000000, 
-0.22018981701614093, 0.0856506538702345, 0.19760676281134157, 146138000000, 
-0.22116047684809992, 0.11674354660632612, 0.22637536318344342, 146143000000, 
-0.12140088453667738, -0.11345212523518906, 0.23866986991819583, 146148000000, 
-0.19116138984384115, 0.13950572376235826, 0.23410361202169777, 146153000000, 
-0.12033401897831199, -0.03324893441909567, 0.21420176177007236, 146158000000, 
-0.01884397065254313, -0.11341732927193504, 0.18318016574375143, 146163000000, 
-0.11605475652237714, 0.13638867062042184, 0.14137761569297316, 146168000000, 
-0.0556815144026611, -0.05717094405764331, 0.0938672580606801, 146173000000, 
0.016367956748484118, -0.14692540980218918, 0.04556570285417332, 146178000000, 
-0.12050933701558691, 0.08965443585327497, -0.003352744681779774, 146183000000, 
0.010725802166243813, -0.20090475916211553, -0.04747181787094205, 146188000000, 
-0.020728391269450235, -0.06318138626569766, -0.08438334553978137, 146193000000, 
-0.07162910921015744, 0.11874061202309052, -0.11387196323332202, 146198000000, 
0.02712307680025219, -0.22444668283326577, -0.1329622657179815, 146203000000, 
-0.09330060608717144, 0.09656296615422877, -0.14088781613977364, 146208000000, 
-0.009641394591182502, -0.10233273031485754, -0.14054296820613613, 146213000000, 
0.015482362468191402, -0.2372403618988153, -0.13000826564267157, 146218000000, 
-0.07882505826776941, 0.10842577316998166, -0.11294580766700295, 146223000000, 
0.03294890923397727, -0.2411606059139792, -0.08983695688322342, 146228000000, 
-0.12776097523569377, 0.10269365753094947, -0.061506249097354436, 146233000000, 
-0.023854122958292468, -0.07140336016295867, -0.033066016817038565, 146238000000, 
-0.001992831751175074, -0.21723538682543575, 0.001999799580808499, 146243000000, 
-0.11616261961064668, 0.14061628610044116, 0.022799095780636124, 146249000000, 
0.0016642657607422243, -0.19973884900976557, 0.04966241418634905, 146254000000, 
-0.11704617868637646, -0.04326973918096265, 0.06400574945608808, 146259000000, 
-0.10846647720467102, 0.06576007657174263, 0.07762839109709548, 146264000000, 
-0.02185705267037143, -0.1622774589882692, 0.08363491024036106, 146269000000, 
-0.11368865063739203, 0.13020507270164733, 0.08262943016301609, 146274000000, 
-0.012387295290602476, -0.18620497752664364, 0.07661599566282878, 146279000000, 
-0.04140274998994603, -0.05972423775817372, 0.06679349728901203, 146284000000, 
-0.13261330960861617, 0.11556653793893014, 0.05220177920519717, 146289000000, 
0.024860410168180407, -0.20878319508097515, 0.03643959351479534, 146294000000, 
-0.12844741428143663, 0.13144139966704302, 0.019361210833426977, 146299000000, 
0.022568232588967292, -0.18868140672056752, 0.002534178142013452, 146304000000, 
-0.05099001683999237, -0.10726348216341058, -0.012985790257761327, 146309000000, 
-0.14313948484554082, 0.11841896915222996, -0.027305255019006495, 146314000000, 
0.06241898519725351, -0.24401593969129873, -0.03855957115396265, 146319000000, 
-0.12134875941874546, 0.13178695764531262, -0.04546186248852333, 146324000000, 
-0.019333262473379548, -0.09261953608213182, -0.049703644751555476, 146329000000, 
0.08340711315262066, -0.2906332675289984, -0.049945099477203284, 146334000000, 
-0.14771243631144682, 0.15458441257213457, -0.04726977893892569, 146339000000, 
0.05724889510020665, -0.23095923971539797, -0.04251335093389815, 146344000000, 
-0.12645724026949004, 0.10361203155271155, -0.03435007840295588, 146349000000, 
-0.05852231682201181, -0.060142024516826834, -0.025272411256981347, 146354000000, 
0.04824870388850877, -0.2587476964066477, -0.015015448909935794, 146359000000, 
-0.17396755313263101, 0.14495199270418357, -0.004933856277844992, 146364000000, 
-0.0323113441737392, -0.08976696181200373, 0.004993035091724939, 146369000000, 
-0.02529816868419101, -0.043058038556765245, 0.013827855812839917, 146374000000, 
-0.1275150261173793, -0.03211980887805194, 0.02017972495737487, 146379000000, 
0.03234352340415933, -0.19478933587807873, 0.02517494071958604, 146384000000, 
-0.16072104277209032, 0.1447033668170088, 0.028647925982628584, 146389000000, 
-0.08035744156580404, -0.06830786000081764, 0.029212314939764002, 146394000000, 
-0.012989656528448967, -0.20511229866380928, 0.027869124733287724, 146399000000, 
-0.13403235737498048, 0.148542403457983, 0.02527855027379363, 146404000000, 
-0.05286370306114639, -0.09667740216046519, 0.02113253501641447, 146409000000, 
-0.0724260778525777, -0.07034814280152922, 0.01565458695437277, 146414000000, 
-0.05716890692313166, -0.01879454530897185, 0.00994497429537149, 146419000000, 
-0.049372236556911905, -0.0527828516222208, 0.0039417329438750015, 146424000000, 
-0.05970772080798502, -0.17848371562244872, -0.0022891114825097504, 146429000000, 
-0.09124296168672587, 0.13886220530554408, -0.006933052530005383, 146434000000, 
-0.07371701690180806, -0.10369498212955298, -0.01187557286692794, 146439000000, 
-0.014568518019615857, -0.21428640980942304, -0.014870624221817196, 146444000000, 
-0.05199877429996875, 0.13739044662154856, -0.0167315322357946, 146449000000, 
-0.05436072388415769, -0.06586379127443115, -0.017518144376981914, 146454000000, 
-0.022999950318375283, -0.17291183300959906, -0.01667897043440363, 146460000000, 
-0.06240771595597301, 0.2505538472224625, -0.015416403921315222, 146465000000, 
-0.068519655243082, -0.06658413136922893, -0.012850002791533168, 146470000000, 
-0.04405039858111359, -0.07013247568913944, -0.010206443117561192, 146475000000, 
-0.04109952714240664, -0.057198888782402146, -0.006315908264866317, 146480000000, 
-0.020424877949640013, -0.030893890070635678, -0.002937252536788537, 146485000000, 
-0.05791226512286964, -0.05186042862981684, 0.0004567580502179817, 146490000000, 
-0.0814076953089881, -0.016958355089634263, 0.004005552205363983, 146495000000, 
-0.07548733433451943, -0.07753507596943392, 0.006331887768103061, 146500000000, 
-0.06374424732074604, -0.21065898705034172, 0.008398291476874792, 146505000000, 
-0.05275266429742201, 0.0928237493392217, 0.009505471786543042, 146510000000, 
-0.08541946451275723, -0.07355257138302691, 0.01014706460136876, 146515000000, 
-0.06060151447456693, -0.23917480226895688, 0.010341280873596587, 146520000000, 
-0.077233726768133, 0.08198432365700274, 0.009896275660010778, 146525000000, 
-0.038497819399477995, -0.18984214004477096, 0.007766290367567884, 146530000000, 
-0.040901216981499816, 0.07942670988446143, 0.0064714568356292615, 146535000000, 
-0.06853673771781299, -0.05636531969490751, 0.004327939681072792, 146540000000, 
-0.03998254308336875, -0.17496180484377166, 0.0024610343256066835, 146545000000, 
-0.04728283706801155, 0.11492372404255366, 0.0004765647696273536, 146550000000, 
-0.04019471658985685, -0.03697449139563785, -0.001829509200035598, 146555000000, 
-0.05466034456968566, -0.08370816669814658, -0.0036246551078812795, 146560000000, 
-0.03115596305142825, -0.037886727945636994, -0.004503391179178706, 146565000000, 
-0.0656357183576506, -0.05072279866402031, -0.005848656620671907, 146570000000, 
-0.040560262990643414, -0.05949820866753641, -0.00613182933562646, 146575000000, 
-0.06769979616271167, -0.0556302542575091, -0.005679697608279007, 146580000000, 
-0.07443269875723618, -0.15258726391032376, -0.005570980646286734, 146585000000, 
-0.07642376354385737, -0.003600660775417368, -0.005095776868506419, 146590000000, 
-0.06100594425325136, -0.05512487079496631, -0.004200639178806671, 146595000000, 
-0.032089602259066694, -0.163073872664341, -0.002487242401412298, 146600000000, 
-0.08527739810071859, 0.06685706123481064, -0.0018398355026374973, 146605000000, 
-0.048643118864995546, -0.0673356298716999, -0.0006651387045674517, 146610000000, 
-0.03001210273176115, -0.1361487908629979, 0.0005765345619579402, 146615000000, 
-0.0643572828179821, 0.05955360508863701, 0.0018131778092473504, 146620000000, 
-0.04987911603116245, -0.0719093379936196, 0.0023326814114378574, 146625000000, 
-0.0446972573757058, -0.11832845387922292, 0.0030296977680702476, 146630000000, 
-0.048404349577345164, 0.03090867281537716, 0.0032888206805531655, 146635000000, 
-0.0762169228886148, -0.11389728285828385, 0.0036354118449328696, 146640000000, 
-0.06613784875317869, 0.04136137560816539, 0.0034575789193144017, 146645000000, 
-0.04512071921074243, -0.03931958858457432, 0.0033505267757411154, 146650000000, 
-0.05394190152655081, -0.11594028986247318, 0.002237160402328944, 146655000000, 
-0.04360079032411583, 0.03847073225744843, 0.0020065631604811707, 146660000000, 
-0.016898266292300304, -0.06599635828595875, 0.000914906699216749, 146665000000, 
-0.07230362870414125, -0.12368611008786673, 0.00034297318758206246, 146670000000, 
-0.0592907423021977, -0.0020443607524847345, -0.0004952096525953752, 146675000000, 
-0.05606094340754318, -0.1345853435080069, -0.0006770756012852335, 146680000000, 
-0.03362594413545343, 0.04757259983896411, -0.0010693662021303036, 146685000000, 
-0.05019076774850118, -0.05652277348766799, -0.0018526464212355624, 146690000000, 
-0.06161285826647458, -0.11290826980589741, -0.0022286292350933512, 146695000000, 
-0.016668450682987015, 0.012905103049022253, -0.0024261910350191845, 146700000000, 
-0.06068662439131367, -0.04282425968129174, -0.0020511155386127274, 146705000000, 
-0.08609035429359907, -0.07358774683032565, -0.001811082371413887, 146710000000, 
-0.06513264370171515, 0.03182125740763836, -0.0017509689419188104, 146715000000, 
-0.031445299695564165, -0.09166887651316326, -0.00155485339360322, 146720000000, 
-0.07579557443479086, -0.03701915486857261, -0.0004783624656308042, 146725000000, 
-0.058548822421700494, -0.06062540435680602, -0.0001556398480844005, 146730000000, 
-0.05144387462376678, -0.12405395158478773, 9.257163006432639e-05, 146735000000, 
-0.06572074252609239, -0.013353847823735106, 0.00044901389683553954, 146740000000, 
-0.05002643549900525, -0.06971794380320295, 0.0004509373735971515, 146745000000, 
-0.04796882504171224, -0.0038115119702048852, 0.0010758730316613324, 146750000000, 
-0.06449799624502106, -0.050205393634560176, 0.0009578164836453792, 146755000000, 
-0.031694737984982645, -0.04976156996295961, 0.0014801815076664314, 146760000000, 
-0.06519921686645354, -0.0334688583060138, 0.0009240760490222508, 146765000000, 
-0.06919069384384349, -0.09508376501245333, 0.001283056806829109, 146770000000, 
-0.05624420982425058, 0.02052546769536181, 0.0006701686515567214, 146775000000, 
-0.03757343434008409, -0.08964719460334096, 0.0006249339729000344, 146780000000, 
-0.038126446631835204, -0.04142281640867787, 0.0004698072967823218, 146785000000, 
-0.09873096172321238, -0.027356842165894124, 0.00017118573902473233, 146790000000, 
-0.06101775121732297, -0.07021524288628132, -2.7438611840036145e-05, 146795000000, 
-0.07622382530553046, 0.02144307961544614, -0.0003901606464201337, 146800000000, 
-0.04375742801959542, -0.09460579219329653, -0.0005447517555331172, 146805000000, 
-0.050634477413155944, 0.00032167515443585885, -0.0002609266077590159, 146810000000, 
-0.07867021174743277, -0.03934639098323243, -0.0004934973885041181, 146815000000, 
-0.04582794716209023, -0.09246111723521294, -0.000724800800149556, 146820000000, 
-0.08666287113424653, 0.0009132778662101519, -0.0005205409041039694, 146825000000, 
-0.0761270417623554, -0.07620299054276164, -0.0008959443748153043, 146830000000, 
-0.03544259267132606, -0.07221180009512153, -0.0010223355082535361, 146835000000, 
-0.06975675417590044, -0.017155991185537647, -0.0008998087574300949, 146840000000, 
-0.05014653049948193, -0.05590969904058335, -8.810421821966064e-05, 146845000000, 
-0.0817800653305623, -0.10230751067965109, -0.0005868416717462956, 146850000000, 
-0.019766696500610442, -0.017930571128082946, 1.757886394819196e-05, 146855000000, 
-0.09636683851565447, -0.04871802678201126, 0.00026697306230149046, 146860000000, 
-0.08586469616735894, -0.011853928660283009, 0.00016589471255227397, 146865000000, 
-0.08384862331521475, -0.056125920672385296, 0.00018535620349279533, 146870000000, 
-0.03831086872004605, -0.08517423361507778, 0.0005350458453136392, 146875000000, 
-0.06993600279087155, -0.005674661695108908, 0.000709084366844282, 146880000000, 
-0.06224605174338462, -0.04944257747029416, 0.0004847322419152922, 146885000000, 
-0.04502931305336387, -0.05449632764587649, 0.0001741748994524124, 146890000000, 
-0.04914845996765194, -0.024654766316949357, 0.0008078428416543593, 146895000000, 
-0.02675884856689481, -0.0047210789614728355, 0.0002129881873585052, 146900000000, 
-0.020338156298916575, -0.07561064989525998, 9.786763946254421e-05, 146905000000, 
-0.04355053559658825, -0.01187849033576043, 0.00014734955305274085, 146910000000, 
-0.05065924086102348, -0.06617825663249918, -7.721626036278714e-05, 146915000000, 
-0.031489108178418365, 0.0037451411506589267, -1.15318772610162e-05, 146920000000, 
-0.04553345334484415, -0.054331639182171154, -0.0002339902393328046, 146925000000, 
-0.06164134823320175, -0.045215444551231165, 3.182071329209152e-05, 146930000000, 
-0.03709819850324326, -0.01151746586240797, -0.0002954513563797154, 146935000000, 
-0.0636252457778601, -0.06716875065267634, 0.0001938486226607713, 146940000000, 
-0.04160655420826612, -0.07189234246281127, -0.0004022441934980286, 146945000000, 
-0.031039625276338023, -0.03652405219626878, -0.00018575790121247638, 146950000000, 
-0.056195866887282495, -0.027901862422326312, -0.00037589822988543854, 146955000000, 
-0.05350032992701029, -0.0669475530772459, -0.00010996830281901044, 146960000000, 
-0.06297302790810451, -0.02752541473994831, -0.00012040436991789523, 146965000000, 
-0.039627509084730034, -0.03178735265968441, -0.0003053884828593166, 146970000000, 
-0.03906022872765255, -0.0690856195166784, 0.00014146975466745095, 146975000000, 
-0.07703396551166447, -0.02293664679509083, 0.00017159824150696476, 146980000000, 
-0.051176466269996, -0.033769250365144124, -0.00029216825368606997, 146985000000, 
-0.0200160345342289, -0.05620875251294683, 4.0134479387618325e-05, 146990000000, 
-0.06900589646070353, -0.014158279226063993, 7.289919644516102e-06, 146995000000, 
-0.06488669415114166, -0.033934733033738146, 9.679473269798895e-05, 147000000000, 
-0.07473449068885678, -0.06951345611806387, 0.00015249082897926894, 147005000000, 
-0.04040556786634175, -0.06186042998561048, -5.2593437188031304e-05, 147010000000, 
-0.03711808749059493, 0.006040299108421687, 4.680659110739629e-05, 147015000000, 
-0.04904288831158392, -0.016797963102758842, -0.000150683397965263, 147020000000, 
-0.03888255538403157, -0.060365762514744195, 9.309910651317374e-05, 147025000000, 
-0.06500777386910325, -0.05291538610455102, 0.0006338828362775175, 147030000000, 
-0.059098322973411235, -0.040234132383270206, 9.536263039878049e-05, 147035000000, 
-0.024427363053317934, -0.05864958675958207, 7.831257077338799e-05, 147040000000, 
-0.06021675591486397, -0.0659620316298554, 0.00041339585258400307, 147045000000, 
-0.07447835362414484, -0.04760412414198152, 9.872320920823145e-05, 147050000000, 
-0.05283292218560171, -0.03859742302551912, 0.0002058005609076033, 147055000000, 
-0.06307429695060686, -0.02108444230825811, -3.314840716782071e-05, 147060000000, 
-0.022705216882752545, -0.014649017352153806, 0.0003658466213016927, 147065000000, 
-0.06740864522198291, -0.015481306477104707, 0.0001354140425031955, 147070000000, 
-0.03967149556904184, -0.0546896200686823, 0.0003106804266694903, 147075000000, 
-0.04964542436492273, -0.009509403248481537, -0.00027535805909542117, 147080000000, 
-0.07918599463604295, -0.05496895876747744, -0.0004946949473394897, 147085000000, 
-0.03435842234397713, -0.06332977116007929, 4.493101864118898e-05, 147090000000, 
-0.028038276396698477, -0.061167228737354, 0.0005992226847780847, 147095000000, 
-0.07458737181350136, -0.020543488734076142, -0.0001390024511352866, 147100000000, 
-0.05121677471842725, -0.04770253799082299, 0.00033729669094849965, 147105000000, 
-0.026802054815591215, 0.0052306767430332565, -0.00028664686756618544, 147110000000, 
-0.04340497342786139, -0.04900246025193161, -0.0001520390903354009, 147115000000, 
-0.06305272306934631, -0.06501222304016502, 0.00012150805696893895, 147120000000, 
-0.0621999153779833, -0.03496478855266194, 6.478581934661807e-05, 147125000000, 
-0.04408000185777999, -0.04227400059212842, -0.00018842885250903405, 147130000000, 
-0.0548399160781251, -0.0758699351988121, -4.963174713010736e-05, 147135000000, 
-0.007885511091801405, -0.004845702714649788, -8.880823786074863e-05, 147140000000, 
-0.06312953973633376, -0.05602975317226172, 1.6767843417376586e-06, 147145000000, 
-0.051258310097041376, -0.04200757943645034, -2.7231089476559812e-05, 147150000000, 
-0.050352635636866254, -0.019688260870668745, -0.00015680665490923657, 147155000000, 
-0.08864004654490357, -0.02111736000990134, -0.00010804074007745023, 147160000000, 
-0.047943568294231895, -0.016464551163745383, -0.00013876545425905981, 147165000000, 
-0.05464178412468758, -0.031765640951126134, 0.00025280742376961404, 147170000000, 
-0.05064918409341733, -0.055104902508269375, 4.2767540696796654e-05, 147175000000, 
-0.02480931013578519, -0.02840005943836475, 0.0001810796687146341, 147180000000, 
-0.08069433275682429, -0.041359322960708975, -0.00022338443942480606, 147185000000, 
-0.07071754823970708, -0.030432065615093366, 0.00013793699908592276, 147190000000, 
-0.06004613909496649, -0.015873885851887634, -0.0003055993371409044, 147195000000, 
-0.06673234363264267, -0.0627563534337939, 5.408913512153253e-05, 147200000000, 
-0.07446931450467117, -0.03992955225142447, 0.0002245275886646783, 147205000000, 
-0.052274458274732885, -0.02035176531581316, 0.0001674927203586917, 147210000000, 
-0.08400146803234701, -0.011808901470054829, -0.0001014028670192698, 147215000000, 
-0.07421563520711391, -0.051809498424201024, 3.944666912113742e-05, 147220000000, 
-0.053007959359590205, -0.03915539770680514, -2.121616988747782e-05, 147225000000, 
-0.0744188301270699, -0.04859074273815672, 1.5910659307710987e-05, 147230000000, 
-0.04690215563519942, 0.0007959446970401893, 6.272164140601894e-05, 147235000000, 
-0.0578663186406512, -0.019351267966765444, 8.64309563991593e-05, 147240000000, 
-0.027099934632851864, -0.019323577830138286, 0.00014506272426054601, 147245000000, 
-0.0405395723060895, -0.03511475028640901, -3.0381327137827653e-05, 147250000000, 
-0.05680516334951276, -0.024148396568978655, -0.00020764244585789356, 147255000000, 
-0.0360420621628393, -0.03434216405216391, -3.6601214525343836e-05, 147260000000, 
-0.056956315777541934, -0.04733000188606661, 2.972365025945622e-05, 147266000000, 
-0.06470293436886669, -0.03410845526575833, 0.00030055787156875967, 147271000000, 
-0.053434213026318636, 0.00028931328688984806, 0.00014987562396250016, 147276000000, 
-0.05273072246485677, -0.047872770510820076, -0.0006536116797498337, 147281000000, 
-0.051223887750403665, -0.018490347992606376, 6.223228339469497e-05, 147286000000, 
-0.09301724506284736, -0.039450230062030564, -3.3033056650365544e-05, 147291000000, 
-0.10104419921158976, -0.030947718487292258, 4.1575759581209984e-05, 147296000000, 
-0.08896483140650048, -0.03862480332026739, -0.00018981740280406774, 147301000000, 
-0.0847047282336145, -0.05113834573048076, 0.00028053330997316185, 147306000000, 
-0.02825996766338065, -0.03544856000179627, -0.0002046616485770144, 147311000000, 
-0.07918460538563635, -0.02809240137835595, 0.0003539374590324001, 147316000000, 
-0.07115807689085228, -0.07778777868105438, -0.00043966118806268277, 147321000000, 
-0.0599012204603677, -0.04643536550997472, 8.383842260973221e-05, 147326000000, 
-0.0600548959607807, -0.04058642977109918, 0.00022196895107065405, 147331000000, 
-0.0546001804945359, -0.029270079893197132, -0.00024038189544567135, 147336000000, 
-0.08602074951765759, -0.0366326260556808, -5.1550853927454056e-05, 147341000000, 
-0.0444228924985074, -0.005392043720079544, 0.00010314878275532758, 147346000000, 
-0.09132404419862006, -0.02003553330662429, 0.0003152628952018872, 147351000000, 
-0.08892830027338405, -0.022252241256210857, -0.00023056300792947813, 147356000000, 
-0.012913772105403738, -0.03680007880041212, 1.284866898008144e-05, 147361000000, 
-0.06436175843702235, -0.025767526476556273, 9.970952152229583e-06, 147366000000, 
-0.05879253096943089, -0.028724828477834814, 0.00036572478309130225, 147371000000, 
-0.07716724658115567, -0.03971391069752832, 0.00029759070247907456, 147376000000, 
-0.03579812786049706, -0.031520697951765465, -0.00013097014643257082, 147381000000, 
-0.06100577788969139, -0.013831613808614552, 0.00012316033049562767, 147386000000, 
-0.05229969466054451, 0.004329995567558916, -1.734316159283982e-05, 147391000000, 
-0.07634059063803501, -0.023268941097192984, -0.00028522993836210565, 147396000000, 
-0.01771319199819906, -0.01219066105590578, -0.00024984753241731166, 147401000000, 
-0.07429902557302445, -0.03328571270171266, -3.06750772524538e-05, 147406000000, 
-0.05939734697725147, -0.014063204809970219, 6.583941415459866e-06, 147411000000, 
-0.0952071270985028, -0.006289275728365948, -0.00011982980823750402, 147416000000, 
-0.07274574115580526, -0.01821885504409432, 0.00014742911071613158, 147421000000, 
-0.025958636311186944, -0.04029806354399445, -0.00016515007131936058, 147426000000, 
-0.0068008821384313994, -0.019168392957734454, -7.610822503612133e-05, 147431000000, 
-0.05573688269154967, -0.05027638713183423, -0.00018112648418935456, 147436000000, 
-0.024005289648059046, 0.013813798289583436, 0.0003982667659192889, 147441000000, 
-0.049375710967324224, -0.026772940185277184, 4.3715771241920816e-05, 147446000000, 
-0.06511721437521593, -0.052135192112246445, 0.000101318186541106, 147451000000, 
-0.042933881619070455, -0.02415005871103564, 4.136284943656945e-05, 147456000000, 
-0.023550940715102123, -0.03677441657638515, -0.00018086787585741695, 147461000000, 
-0.0717955218881054, -0.012275624178526857, -4.2835561423543484e-05, 147466000000, 
-0.04092547993293848, -0.03261053265380331, -0.00033087228443933516, 147471000000, 
-0.0505897698871087, -0.025431144168710996, -0.0004461920112036875, 147477000000, 
-0.06000152804011663, 0.01080685974289864, -0.0001003265706629622, 147482000000, 
-0.0471052721902177, -0.00986350996445916, 0.00038728074953489486, 147487000000, 
-0.04947632803344077, -0.005870033682743053, 0.0001881984290661097, 147492000000, 
-0.0360266940566583, -0.038239772612035976, 8.898389845077951e-05, 147497000000, 
-0.04960688941998134, -0.02015417078068274, 3.99484690563837e-05, 147502000000, 
-0.05051602647619845, -0.01735387059803285, 0.00012549468478526858, 147507000000, 
-0.04644371079442462, -0.019201726184971058, 0.00015233386951952853, 147512000000, 
-0.050735939906547775, -0.023283641099631325, -0.00014336755593632035, 147517000000, 
-0.051853436531042595, -0.019001968339108135, -0.00014730809821756577, 147522000000, 
-0.041699460475339185, -0.04273143684041558, 0.0002267117759409428, 147527000000, 
-0.05088872125448433, -0.010895665784022865, 0.00018604016089664928, 147532000000, 
-0.04512704988543229, -0.04111946726146856, -0.0002502202589607388, 147537000000, 
-0.0505959847747927, -0.03288046528133672, 0.00025140651142473684, 147543000000, 
-0.05479173039790142, -0.031122277404833643, -4.643594950633951e-05, 147548000000, 
-0.05662820060319869, -0.01927800185311442, -0.0006067171024072401, 147553000000, 
-0.05854063824230933, -0.030495030841163576, -0.00022030495214671254, 147558000000, 
-0.042089790413548114, -0.02705976112817037, 4.35832693385078e-05, 147563000000, 
-0.08402773097858324, -0.03682653091369917, -0.00012916795584328423, 147568000000, 
-0.07371338843992711, -0.025058984829014648, -0.0003176394132633428, 147573000000, 
-0.06080920285960384, -0.020401593275352892, -0.0001139302137648807, 147578000000, 
-0.0732098524435898, -0.011435996737806185, -0.00021739127073512458, 147583000000, 
-0.05797344166995085, -0.028623505631386048, -7.403411398159946e-05, 147588000000, 
-0.06292873794607132, -0.02853416621956706, -0.00013685934169771605, 147593000000, 
-0.04343801460399822, -0.008788479266360758, -0.0001591672035432568, 147598000000, 
-0.059617059732337795, 0.014352522901117645, 0.00016568058311639767, 147603000000, 
-0.0789778728552365, -0.02908378771837193, 5.942895031692161e-05, 147608000000, 
-0.04146013683415714, -0.011226894564003918, -0.0002755065573896414, 147613000000, 
-0.06565087825093359, -0.009217939816660267, 0.0001354540216161719, 147618000000, 
-0.06445914616752843, -0.0249256185885056, 0.000133534655439108, 147623000000, 
-0.06653652164525235, -0.03180284428523273, 8.299806776744338e-05, 147628000000, 
-0.04212469835419852, -0.011869324295554207, 1.0161411641440684e-05, 147633000000, 
-0.06675118476654111, -0.0022527021450980296, -0.00010719142630532365, 147638000000, 
-0.05566783858194933, -0.023973019107082966, -0.00031971479746576136, 147643000000, 
-0.07570308276195788, -0.030864936277157286, -6.552550512600506e-05, 147648000000, 
-0.04095895853782293, -0.0060925240943937396, 5.752453332401105e-05, 147655000000, 
-0.04968423545359067, -3.972966594995367e-05, -1.9268033667138538e-05, 147660000000, 
-0.042673404774576935, 0.002460577759414502, 0.0002700553524579057, 147665000000, 
-0.04043772047226421, -0.01877406230600559, 0.00016076692991581873, 147671000000, 
-0.05178440020428565, -0.008423684637550811, -0.00019831476019167843, 147676000000, 
-0.07372071333233773, -0.005545397541972797, 2.5822750371298887e-05, 147681000000, 
-0.053654751781802026, -0.019907627446609708, 0.00018806797289895732, 147686000000, 
-0.02226150920562572, -0.03408048045378837, 2.7041618419548678e-05, 147691000000, 
-0.039815055816780055, -0.014926911183723406, 7.590950842552439e-06, 147696000000, 
-0.07990590474686424, -0.017198176449716177, 0.000616333601909031, 147701000000, 
-0.055511784421752364, 0.013698670051594553, 0.00012162726303698002, 147706000000, 
-0.034259768245855984, -0.023165419560841345, 0.00012134336274460864, 147711000000, 
-0.0593942522865384, -0.020926790749657507, -0.00017885841316971556, 147716000000, 
-0.0818741054364785, -0.004110366034363376, 3.9103625091235075e-05, 147721000000, 
-0.05192295471221871, 0.020749044015713505, 0.0002266283289994184, 147726000000, 
-0.042557244468325206, -0.018726487521263442, 5.910716483978325e-05, 147731000000, 
-0.0816534323647875, -0.005238230531950612, 8.37258938512896e-05, 147736000000, 
-0.07619602356305837, -0.04708611156479037, 0.0002508269951104846, 147741000000, 
-0.02696826224543638, 0.003119842112856628, 8.224162392614186e-05, 147746000000, 
-0.059064081677117554, -0.0017738611623216959, 0.00032898977569565177, 147751000000, 
-0.05307860595500325, -0.013346431511865623, -0.0004924364053810709, 147756000000, 
-0.05171761620727069, -0.009685242633609743, -9.836601362119788e-05, 147761000000, 
-0.07490990489827283, 0.02067526062027507, -0.00016205300440159433, 147766000000, 
-0.04848020459944344, -0.022336521523267785, -5.300633367159975e-05, 147771000000, 
-0.05124240161646466, -0.021966892704584972, -2.290216497923329e-05, 147776000000, 
-0.05799582700699426, -0.0042681743361119365, 0.00015255061611325923, 147781000000, 
-0.037681281594475056, 0.008852398894062889, 7.66412166571526e-05, 147786000000, 
-0.04934051908466915, -0.007758078704880067, -6.522396295292246e-05, 147791000000, 
-0.028599321690549497, 0.0036564955104236886, 0.0001232827251179567, 147796000000, 
-0.05031813634143266, -0.025108756876339462, -8.080316727077352e-05, 147801000000, 
-0.07746376810355861, 0.0015051440624234413, 6.779105614482858e-05, 147806000000, 
-0.032465602341226515, 0.024008448542011396, -7.721910353105867e-05, 147811000000, 
-0.025188462402563373, -0.012678272581872312, -9.662739652140696e-05, 147816000000, 
-0.06413605104036083, -0.03540769538015359, 0.0001241457422706526, 147821000000, 
-0.049125405238398735, -0.010519240486457764, -0.0002748130543991502, 147826000000, 
-0.053177848068896874, 0.0063879183479010684, 0.00015829850529900104, 147831000000, 
-0.0637914753581774, -0.010801487656775256, 6.0718468777613106e-05, 147836000000, 
-0.03574243907976792, -0.0020433610797807086, 0.00027378347679459035, 147841000000, 
-0.059934408608343884, -0.0192241563577693, -0.00019565189020863717, 147846000000, 
-0.02844515656891481, -0.01226218505464459, 0.0001290213497519053, 147851000000, 
-0.05781384575077382, -0.005585463939706512, 0.00010431725617739794, 147856000000, 
-0.04876687015157114, -0.01062241554847619, 0.00018074907452018358, 147861000000, 
-0.0579414147281489, -0.026234716605759663, -5.236994404817728e-06, 147866000000, 
-0.03640831823524237, -0.015351494106076651, 0.00025634839992872023, 147871000000, 
-0.055198217294688885, -0.029863512839974956, -0.000270858264785103, 147876000000, 
-0.023672130370904466, -0.010486267241213251, 0.00017461072893836947, 147881000000, 
-0.09239323946437772, -0.004235000638683996, 0.00023606651026519444, 147886000000, 
-0.08773705384276266, -0.037423355740014125, -0.0001539916150906311, 147891000000, 
-0.03355819367993931, -0.01969713380998473, -0.00031895207710183843, 147896000000, 
-0.04622879700604442, -0.009639845576451716, 0.0002530865618056384, 147901000000, 
-0.045471183891163516, 0.007417775513991521, -0.00031675267232670614, 147906000000, 
-0.05286771944659367, 0.011515115678625868, 0.00024064972930484303, 147911000000, 
-0.051249986721064525, 0.022118662715643472, 0.0003195102790340064, 147916000000, 
-0.06136226285238412, -0.010405160285210834, -6.202175328611471e-05, 147921000000, 
-0.05878723683733071, 0.01893855209532798, -0.00033761250965479443, 147926000000, 
-0.07206225524698791, -0.0007914784063018047, 6.488831269072805e-05, 147931000000, 
-0.060803394008370794, -0.015782226472016825, 0.0005061886495690697, 147936000000, 
-0.10715272402843987, -0.01636368967631983, -0.00041142418986072835, 147941000000, 
-0.0743795041935246, -0.03199022467626041, -4.162329121203326e-05, 147946000000, 
-0.07763346988964254, -0.0005530746678018231, -0.0003370134670017444, 147951000000, 
-0.06299917247899817, -0.012748970611864403, 0.00034657034408835203, 147956000000, 
-0.06881696689524117, -0.019772191488994152, 0.0002752039710477691, 147961000000, 
-0.07436218196164077, -0.05231086675843732, 0.00010315783395915911, 147966000000, 
-0.03438429083652278, -0.026737839260226, 5.2920452313344116e-05, 147971000000, 
-0.06905245386242233, -0.017262431691931625, -5.03654734100293e-05, 147976000000, 
-0.052409807205239835, -0.042496576027653096, 0.00017600627053189813, 147981000000, 
-0.07577416383682603, -0.03195586248415375, 0.00011275276792033939, 147986000000, 
-0.04913072786434722, -0.02421037548479369, -0.00020848583857764898, 147991000000, 
-0.04969158147305963, -0.01574980639793458, 9.063125861888544e-05, 147996000000, 
-0.10252179178654935, 0.01802235588350877, 0.00012913935594555505, 148001000000, 
-0.04245979722886187, 0.011711381561175325, 0.00033608518655845517, 148006000000, 
-0.0495093355195267, 0.01348365673266752, 8.191983192173232e-05, 148011000000, 
-0.07781121961313989, 0.011335642998508446, -0.00035443937087622335, 148016000000, 
-0.06657492579213567, -0.027202277023959505, -9.239095815211281e-05, 148021000000, 
-0.06479080668593282, 0.010326031924487944, 2.0946407329016883e-05, 148026000000, 
-0.05800778316579564, 0.010113169143200533, -6.718228397635267e-05, 148031000000, 
-0.049580123010016554, -0.008619464327669281, -0.00022540789298710538, 148036000000, 
-0.03580805909118001, -0.008702283686623763, 0.00027875060531469575, 148041000000, 
-0.05511380294697067, -0.019056692920216663, 0.00028367763703711666, 148046000000, 
-0.05815560720494184, -0.03424162797290688, 2.653862402953998e-05, 148051000000, 
-0.08604317769656435, -0.010185284370766351, 0.00010451791995708104, 148056000000, 
-0.06831348535527018, 0.005518075716392916, -0.0002500616999597204, 148061000000, 
-0.04073700555437256, 0.0036869957167072987, 0.0002946796383099672, 148066000000, 
-0.06132202928030178, -0.0014918155664527862, -6.473618045516371e-05, 148071000000, 
-0.061819612473842434, -9.675238712562352e-05, -0.000424992338062246, 148076000000, 
-0.033083184674427876, 0.009478319826865518, -9.124429780082436e-05, 148081000000, 
-0.06994402033045344, -0.030344899898783886, 0.00015347724021984421, 148086000000, 
-0.03656814601715383, -0.017376734969124855, 0.00012387415519907766, 148091000000, 
-0.07215292411417575, -0.0022615410177603172, 0.00015436016939337585, 148096000000, 
-0.03335878764324689, 0.005228568091812637, -0.00024332608537362574, 148101000000, 
-0.04540847690711839, -0.014965313348759977, -1.5521230341755827e-05, 148106000000, 
-0.07106590692143609, 0.021908542727873227, -2.8403203207219635e-05, 148111000000, 
-0.03348057437910176, -0.015124116659736588, 0.00018281248627152679, 148116000000, 
-0.060621362071168756, 0.01491078420498107, 0.00012237968171507636, 148121000000, 
-0.05971057283500637, -0.019479655960690477, 3.1282324402749404e-05, 148126000000, 
-0.06297068279971565, 0.00812685667729265, 0.0002553330728364632, 148131000000, 
-0.05413234431881401, -0.009885496613696768, 1.8819787557137117e-05, 148136000000, 
-0.04830933420547613, -0.018017705687395174, 4.670285292002729e-05, 148141000000, 
-0.057177726628246266, -0.009561348292394311, 9.209910526812205e-05, 148146000000, 
-0.05821694358862659, -0.013201958738528483, -0.00022707990196035453, 148151000000, 
-0.07110509959739474, -0.006779171259416975, -0.00011112089197185088, 148156000000, 
-0.06486136069675778, -0.0021116965718720893, -4.357364127171589e-05, 148161000000, 
-0.06445980557178928, 0.008702816274551056, 0.00018687245938373665, 148166000000, 
-0.08405412047451405, -0.009655054721907766, -0.00013386795335457212, 148171000000, 
-0.040440282815621065, -0.009044968905871434, 4.098151597946783e-05, 148176000000, 
-0.061535699805895606, 0.000586581433602663, 5.5956651921462025e-06, 148181000000, 
-0.04456344044793376, -0.010768814249411587, 7.840568373257743e-06, 148186000000, 
-0.038955825130942326, -0.004674446405574277, -0.0001629445577204096, 148191000000, 
-0.07187738764366966, 0.009984663622288958, -0.00018148474872082277, 148196000000, 
-0.04816386376478121, 0.005921980807001933, 0.0002645782973579808, 148201000000, 
-0.03264907561978947, -0.003617878963494143, 5.431800925670304e-05, 148206000000, 
-0.07054825958304728, -0.01934926481501164, -0.0001528299870509693, 148211000000, 
-0.038504018076638155, -0.011432046214726564, 7.509938723300907e-05, 148216000000, 
-0.04029088093770152, -0.010758173159622833, 0.00010251590492171779, 148221000000, 
-0.04085121452313966, -0.030570858079770565, -0.0001933101597642972, 148226000000, 
-0.07503295401564512, 0.006775575090664153, 0.00027877456853177756, 148231000000, 
-0.06380102355863199, 0.008834427594282209, 1.5842489426947248e-05, 148236000000, 
-0.024418909835308082, -0.012224855100590484, 0.000487866396334279, 148241000000, 
-0.03514184136115185, -0.0011817112994271328, -0.0001418392153931889, 148246000000, 
-0.026160311042189383, 0.005759570274119911, -1.5085278628044187e-05, 148251000000, 
-0.051875550596009054, 0.007399869840911075, -0.00010893747594523056, 148256000000, 
-0.070899946617878, -0.01530318754726105, -0.00016256124637492781, 148261000000, 
-0.0567460669908489, 0.00029770192434103214, 0.0003473442038212322, 148266000000, 
-0.06319594024258134, 0.006968298331381214, 0.00019038764346122463, 148271000000, 
-0.022393691803501727, -0.005510404674131176, -0.00025069708239557374, 148276000000, 
-0.07314715379135571, 0.003995370638248938, -0.00015822406721124343, 148281000000, 
-0.05996798994584687, -0.014435734208781258, -9.096062514720766e-05, 148286000000, 
-0.06534484405778339, 0.016886712601610225, -6.56555661671333e-06, 148291000000, 
-0.07396211097371917, 0.03220476644667909, 0.00010964390658239117, 148296000000, 
-0.05862483459914642, 0.020232679243004394, -0.000486282490747762, 148301000000, 
-0.03755709841312456, -0.0018269397465756076, 6.670204713480325e-05, 148306000000, 
-0.0471812016734474, -0.0650360899063655, 0.00012418145772722085, 148311000000, 
-0.06475621177829412, 0.0020879687626877003, 0.00011648629706728647, 148316000000, 
-0.05731141294103217, -0.015771152668680045, 0.00026766439148999285, 148322000000, 
-0.03592555670305657, -0.00713030780884458, 3.233005526606692e-05, 148327000000, 
-0.05594459898198074, -0.012325092567012823, -0.00033429726099570465, 148332000000, 
-0.06677973512610881, -0.009356335511533913, -0.0003247542310189267, 148337000000, 
-0.050817992697546194, 0.04944827546617137, 4.284792411006095e-05, 148342000000, 
-0.04892522013281409, -0.008288427587587062, -0.00026123308753870413, 148347000000, 
-0.030885598175574347, 0.0017561302338789213, -0.0002987563244188467, 148352000000, 
-0.07058678444247865, 0.010478839046630753, 9.85499932008859e-05, 148357000000, 
-0.016253739717917964, -0.0057508452719238125, 0.00010190698414552844, 148362000000, 
-0.05848616435526542, 0.016681167514047034, -6.093278347277411e-06, 148367000000, 
-0.06370575981972793, 0.02501256983769654, 0.00017535363878700457, 148372000000, 
-0.03597685652888112, 0.0008159222123116266, 4.71462797410715e-05, 148377000000, 
-0.056847044696889594, -0.007035568549016566, 0.0002513959672274986, 148382000000, 
-0.06752714580404659, -0.015160162950676438, 6.111959560459338e-05, 148387000000, 
-0.05707308353617579, -0.011254442930934909, 0.00021796049554285627, 148392000000, 
-0.04974488813156985, -0.01706332893440725, -5.838456816729972e-05, 148397000000, 
-0.056488572637143304, -0.01954527249364624, 8.873652236889529e-05, 148402000000, 
-0.052822533919358955, -0.024125857579627766, 0.00019400643725940787, 148407000000, 
-0.0498881408606085, -0.021271957343336128, -1.5667294579622283e-05, 148412000000, 
-0.05367458183943866, 0.031370658011238374, -0.00012275647764875992, 148417000000, 
-0.05423861160420255, -0.013791771402203931, 4.313025541759975e-05, 148422000000, 
-0.06749524108899041, 0.03083580051977213, -8.826434404054573e-05, 148427000000, 
-0.04100586718110917, -0.031971846460681866, -0.0001591053994146432, 148432000000, 
-0.03602435608973472, -0.017373112103769222, 0.00014837869838464177, 148437000000, 
-0.039769317024308165, 0.02468668136358663, 0.00029873452657014045, 148442000000, 
-0.060186555635539644, -0.005214351001833724, 0.00047449549520305496, 148447000000, 
-0.07769726216259454, 0.016617529375667708, -0.00018555664320922291, 148452000000, 
-0.045543051885309355, 0.020818440394226156, 0.0001445698659327638, 148457000000, 
-0.04582035484085296, -0.02900319030931216, -3.236515865188481e-05, 148462000000, 
-0.05166060323036153, -0.016115365041016086, 0.00021358691787290787, 148467000000, 
-0.045046103816495854, -0.01638376889201658, 0.0005111166401420754, 148472000000, 
-0.07874011669650732, 0.03799053057758918, 0.00022055292399033428, 148477000000, 
-0.05563844491792324, 0.02470685333015992, -1.0983581770509542e-05, 148482000000, 
-0.05191484221972577, 0.013899749755624136, 0.00011306940960301776, 148487000000, 
-0.04580052463633617, -0.004116444281188516, 0.00019276113956944097, 148492000000, 
-0.04271570357793636, -0.0057255933989117675, 0.00022241139886291407, 148497000000, 
-0.08293885604835832, -0.021398250048404597, 2.2776748560653066e-05, 148502000000, 
-0.0564585387192251, -0.02911867472930885, 5.204145050936939e-05, 148507000000, 
-0.05083594696357798, 0.002972536974759067, -2.2934638123820272e-05, 148512000000, 
-0.050272943249320114, 0.01787313105967161, -0.0001268710855414593, 148517000000, 
-0.06236167477647045, -0.022262211930941925, -0.0001178227702787065, 148522000000, 
-0.0728630205265039, -0.0010052715184705198, -1.0431750915095242e-05, 148527000000, 
-0.043374148344978464, 0.003832322456975839, 9.792937198884963e-05, 148532000000, 
-0.02994488418252323, -0.015362902100005026, 0.00010640808820801456, 148537000000, 
-0.049544547145843575, 0.007087736570233064, -0.00022148870497097688, 148542000000, 
-0.07407270818670722, 0.013385588716792395, -2.815845891883331e-05, 148547000000, 
-0.06030809867320831, 0.0027786429322513456, 4.726950382617655e-05, 148552000000, 
-0.08741358349028194, 0.002236844168105855, 0.0003201335582266493, 148557000000, 
-0.06636623100751807, -0.013441777862100763, 2.2980317799075105e-05, 148562000000, 
-0.04673952300456987, -0.0034019127181529204, 1.6422531774114712e-05, 148567000000, 
-0.05879803246754421, -0.004298965444875096, 0.000526399159679793, 148572000000, 
-0.060197837797921906, -0.027779376870185994, -0.00032025939424676044, 148577000000, 
-0.0830870000772555, -0.0030156064470107736, 0.00010135753848156161, 148582000000, 
-0.04872643070739197, 0.021778592004534345, -7.577689760322088e-05, 148587000000, 
-0.0678544412046333, -0.000574188703427386, 9.712557682136296e-05, 148592000000, 
-0.023756949853088433, 0.022055925514041, -0.000407300155926059, 148597000000, 
-0.049748449589466406, 0.009914623103550343, -8.615428111875012e-05, 148602000000, 
-0.039226559395206306, 0.02836425932734086, -0.0001306362988053546, 148607000000, 
-0.06625330733918305, -0.015827905588745226, 0.00020324564654565524, 148612000000, 
-0.06271610858556338, -0.03419702697780231, -0.00028900264868589125, 148617000000, 
-0.04649084005453654, -0.030090212486395665, -0.00018120462118175154, 148622000000, 
-0.08118052859518851, -0.015470973445606693, 0.00025725070950735504, 148627000000, 
-0.047539154602276666, -0.0036843247438743394, -0.0001896875994082623, 148632000000, 
-0.10499025373619342, 0.02367370029182302, -7.111250311114607e-05, 148637000000, 
-0.07007392501221986, -0.003283670556666104, -5.1925114323721004e-05, 148642000000, 
-0.028711871110201674, 0.029951583085577875, 0.00010845275382977232, 148647000000, 
-0.05569314756298878, 0.011415093211237744, -0.0001424138164682587, 148652000000, 
-0.07101399554819952, -0.006461305699529669, -3.964111060154362e-05, 148657000000, 
-0.0468117880288905, 0.02466876886323393, 3.23573499359145e-05, 148662000000, 
-0.04857092656557915, 0.023187221248857776, 3.161723320919858e-05, 148667000000, 
-0.014616185810375493, 0.02502226951118708, -9.22540235119873e-05, 148672000000, 
-0.05500820115386677, 0.018453408421104225, -0.0005306402813894063, 148677000000, 
-0.053534138389164126, 0.03130826508745759, 1.7599107145789276e-05, 148682000000, 
-0.058070271362614195, 0.03405639767978923, 0.00011483963728549521, 148687000000, 
-0.029321330597121418, 0.003161959587542136, -0.0003574738855886532, 148692000000, 
-0.07234492109310782, 0.0011637435589247, 0.00011216005007327406, 148697000000, 
-0.0701407330939752, 0.021388788725483308, -0.00010145054749677264, 148702000000, 
-0.02711212038680147, 0.01048009971806365, -2.0996546939714717e-05, 148707000000, 
-0.09381400693817471, -0.0008621437202535184, -0.00012785632281223785, 148712000000, 
-0.05318549293433619, 0.007510137393513415, 1.7060571386427176e-05, 148718000000, 
-0.05429322666481596, 0.0032018026361547327, 0.00018878690034396472, 148723000000, 
-0.0680800269805456, -0.006753264229741356, -9.6618179760778e-05, 148728000000, 
-0.036782054548675724, -0.0021075910297083697, 0.00019317462330414493, 148733000000, 
-0.05570683630292007, 0.007412775155933896, -9.01060694295172e-05, 148738000000, 
-0.052174311509632226, 0.010870059115748069, -3.3731200344604573e-05, 148743000000, 
-0.04773689154434252, -0.0019217903512526125, -0.0002788997559259497, 148748000000, 
-0.04709544634213687, 0.008616386668331902, 0.00021361924878301151, 148753000000, 
-0.07482025209857165, -0.03630089398486399, 0.0002496297990791525, 148758000000, 
-0.009332000800573372, 0.0176390256355365, -0.00016826767456415147, 148763000000, 
-0.0826290499608564, 0.05479396146821017, 2.141749122566804e-05, 148768000000, 
-0.05508212314678979, -0.004173477920716016, 1.8664946642061945e-05, 148774000000, 
-0.04830432547063704, 0.03587996255437979, -0.00010881026461912853, 148779000000, 
-0.04660441411119144, -0.014670361829784737, 0.00011972765726891604, 148784000000, 
-0.08695538331778668, -0.0019374749733905997, 8.608881875171133e-05, 148789000000, 
-0.08866710285497062, 0.02851809536203984, -1.565443605012595e-05, 148794000000, 
-0.04108501385381737, 0.003211677669780637, 4.3308599035692665e-05, 148799000000, 
-0.05955687979739951, 0.009117877576699126, -0.00012188776832749461, 148804000000, 
-0.052039711837426395, -1.2576262967882966e-05, 0.0004548975630321324, 148809000000, 
-0.039716249566797646, -0.004491559816549483, 0.00011711490079046414, 148814000000, 
-0.06680779867414935, -0.007773135429344182, 0.0002022644122477586, 148819000000, 
-0.0662746334544292, 0.007640300184065546, -0.00013222343576374057, 148824000000, 
-0.05608515291194511, 0.012303647684176109, -0.00023402409687154553, 148829000000, 
-0.053510869993934077, -0.008250029229397028, 1.702951647849538e-05, 148834000000, 
-0.045752552378221505, -0.019230487629034294, -0.00020008357856715378, 148839000000, 
-0.02086054357623421, -0.00043166135106391564, 0.00023620285448132348, 148844000000, 
-0.06465790401152338, 0.0256778562222653, -0.00010279933339223931, 148849000000, 
-0.07604697607779112, 0.007575304279893011, 6.516517878607925e-05, 148854000000, 
-0.04532068589301013, 0.01738212374032581, -0.000315645325720497, 148859000000, 
-0.038794476504383654, -0.020637882791472783, -2.577817961555528e-05, 148864000000, 
-0.07466535210592663, -0.011919632700866021, -2.4098174250523968e-05, 148869000000, 
-0.04047249644765218, 0.011638585620498097, 8.354174914699878e-05, 148874000000, 
-0.06852166285701056, 0.004586622430460825, 0.0002227559935753098, 148879000000, 
-0.06430856470812833, 0.04787736297730742, 0.00017467918185203664, 148884000000, 
-0.02239467601408239, -0.009354300556889017, 0.0002274848102015814, 148889000000, 
-0.04721716577215353, -0.007402871851688294, 9.453698201644089e-05, 148894000000, 
-0.04909974343470207, -0.020568853164913598, -9.072855817578951e-05, 148899000000, 
-0.057373194578802515, -0.007305792920143051, 0.00014493286939634852, 148904000000, 
-0.023963773898226452, -0.012574593530409451, 0.00012087602949092461, 148909000000, 
-0.07535216848960281, 0.009508420798210931, 0.00015578913028588414, 148914000000, 
-0.0685493591592049, -0.02952228206497896, -0.00023286427568732125, 148919000000, 
-0.0672982538250301, 0.006249833526600484, -3.297922634992355e-05, 148924000000, 
-0.05065408381207386, -0.003129174183292274, 0.0003022081584119459, 148929000000, 
-0.030349268401501598, -0.012661590311760534, 3.7754817525875655e-05, 148934000000, 
-0.04765005910609714, -0.00991247759894228, 7.072860027699367e-05, 148939000000, 
-0.053378125366227915, 0.007091182952911442, 0.0002559910262885624, 148944000000, 
-0.05690067258687293, -0.007386371838267892, 1.2214342641845535e-05, 148949000000, 
-0.06293458476004514, 0.005893546046861285, 0.0003554977901037448, 148954000000, 
-0.05062602342403152, 0.004284579287163423, 7.834409386798652e-05, 148959000000, 
-0.054051386487447804, -0.01692798218867666, 0.00021632846953625933, 148964000000, 
-0.06641072833436824, -0.0010892063888032037, 3.4078639072987634e-06, 148969000000, 
-0.027700030482835425, 0.016904271824182318, 0.00016981363323756755, 148974000000, 
-0.053912045910487844, 0.0053518551736119165, -0.00041637218471793456, 148979000000, 
-0.0495696444348279, 0.021480696190950103, -2.9394945290038357e-05, 148984000000, 
-0.05176976886566483, -0.0065933685307635725, -0.00016606669663618275, 148989000000, 
-0.11098456946717077, -0.00785268225811817, 2.410141135172261e-05, 148994000000, 
-0.04801445407994431, -0.018603847727930944, -4.643715593985123e-05, 148999000000, 
-0.02760467304432932, 0.0037705151940597426, -0.00011597388036743662, 149004000000, 
-0.05197895718278392, 0.022241879614413106, 0.0001019511729441295, 149009000000, 
-0.042483356995978834, 0.008420898510619178, -0.00013888887083364872, 149014000000, 
-0.06410431109998947, 0.023677484467715587, 3.016979828805503e-05, 149019000000, 
-0.052492954323198934, -0.014826461248652317, -0.00020563023382896655, 149024000000, 
-0.0470108886755337, -0.029979920618983153, 0.0001183480534819031, 149029000000, 
-0.06950633812515979, 0.022026268324508595, -0.00022113511722418692, 149034000000, 
-0.06374723335697562, 0.018223818843773172, -3.079862149429011e-05, 149039000000, 
-0.03820864882176715, 0.012270029882946943, -0.00012865942120053077, 149044000000, 
-0.07007331189591418, -0.0002197845115039336, -2.7416420071683028e-05, 149049000000, 
-0.07157615690005985, -0.005706954562273252, 0.0002419556706347568, 149054000000, 
-0.03871573033456111, -0.01723029620795536, 0.00016183734193625697, 149059000000, 
-0.08496118707757284, -0.010335016235462556, -3.924226510864625e-05, 149064000000, 
-0.0688165493087063, -0.021231844721785565, 1.7332486398059022e-06, 149069000000, 
-0.08996743066620014, 0.035605712734972164, 0.00010024997732737148, 149074000000, 
-0.06770992671277477, -0.002698687882960334, 0.00019403664696975828, 149079000000, 
-0.04559340476730844, 0.0025020077575503424, -0.00011707062604579812, 149084000000, 
-0.07856629142761687, -0.00242571033497457, -0.00039543139667309884, 149089000000, 
-0.021690229867007194, 0.003941590432015947, -0.00023970204166931598, 149094000000, 
-0.08193962457418164, -0.01014853153879687, -0.0003414114504872464, 149099000000, 
-0.033862106251561164, 0.013143823935156469, 4.870068425048485e-05, 149104000000, 
-0.054757450988865676, 0.023716124165550946, -4.1959182074679656e-05, 149109000000, 
-0.053807035412897226, -0.0027919949343278338, -8.967665052183345e-05, 149114000000, 
-0.03833252053633179, -0.002584608844656852, 0.00014066986794447733, 149120000000, 
-0.08092974345207736, 0.00856032144351318, 0.00011992567471031776, 149125000000, 
-0.07028600971452573, 0.03912989902074452, -6.335553332054909e-05, 149130000000, 
-0.07451171018256507, -0.004997674144439897, 0.00014390459229264409, 149135000000, 
-0.07025565870921693, -0.0026663073858352766, -0.0001397005852244204, 149140000000, 
-0.05811621151297842, 0.006254982003613062, -0.00013013309913248875, 149145000000, 
-0.06056882623923933, -0.008700023323540428, -0.0003150168676681745, 149150000000, 
-0.044989394257454254, 0.017188508843028662, 0.0003444973036716289, 149155000000, 
-0.023960000049482993, -0.006801267918469726, 0.00021541334950000646, 149160000000, 
-0.05996800026923081, -0.00819504801933638, 0.00010753610045180488, 149165000000, 
-0.048374882415122056, 0.03749841112948598, -7.802429978445207e-05, 149170000000, 
-0.02652614179563141, 0.02888042911882297, -0.0002588895453689028, 149175000000, 
-0.05673968782415953, 0.015330651589046574, -0.0005414750310437282, 149180000000, 
-0.03933503520776851, 0.022598020329208615, 1.0515552200947439e-05, 149185000000, 
-0.04130836426633172, 0.012512758217761913, 7.267307055267274e-05, 149190000000, 
-0.08390378635074357, -0.013856823822513782, 9.674062476413604e-05, 149195000000, 
-0.05123333198900751, -0.003675482409160169, 0.00013734497506189157, 149200000000, 
-0.07591624854784687, 0.015402394779295383, -4.644820788307384e-05, 149205000000, 
-0.06475863020210437, -0.032136334718584895, 9.683369814782365e-05, 149210000000, 
-0.044957190764931036, 0.0037235214137876765, 0.00016897776143240287, 149215000000, 
-0.056769468232253845, -0.009543565380286457, 2.270762661382291e-06, 149220000000, 
-0.05899364626249631, -0.0072688454572178126, 0.00015067290038746952, 149226000000, 
-0.0436318701760862, -0.011204867882619759, 5.183951985150491e-05, 149231000000, 
-0.07527618982042272, 0.028608949039192914, 0.00020348610615001733, 149236000000, 
-0.028486658095376833, -0.008726073233442218, 1.2241065245359852e-05, 149241000000, 
-0.09900633059931963, -0.015086269351795162, 0.00023703989951962988, 149246000000, 
-0.026079476565299145, 0.01771899722575707, 0.00012158395994837795, 149251000000, 
-0.07641879528656459, 0.005696864442047064, 0.00020212451940210385, 149256000000, 
-0.045884372473229615, -0.014139903758159291, -0.0002552561066438446, 149261000000, 
-0.05793001486101997, 0.02760192108281647, -6.28648747356817e-05, 149266000000, 
-0.0477423772800267, -0.016681297748113874, 6.647944337836308e-05, 149271000000, 
-0.07579705606861016, -0.009543988174215416, 0.00012063905984871429, 149276000000, 
-0.08313778976540448, -0.006287592402566009, 5.7938972280028835e-06, 149281000000, 
-0.04520250404256884, -0.0025988260074036205, 0.00033771390436594336, 149286000000, 
-0.04793733466269497, 0.00875668839691184, -4.024867516498568e-05, 149291000000, 
-0.06951840907861558, -0.0012753831821481001, 3.687746538163933e-05, 149296000000, 
-0.04829910681521228, 0.0196160197004247, 0.0001324265428334959, 149301000000, 
-0.05949164331627217, 0.005238375807307524, -4.1549393963212176e-05, 149306000000, 
-0.05201010582016027, 0.010822200372794199, -4.736405953985581e-05, 149311000000, 
-0.05693031680688576, 0.006568648494936602, -0.0002021762421328916, 149316000000, 
-0.054342697802313676, 0.010917532704318379, 3.187161458648075e-05, 149321000000, 
-0.04263507209590772, -0.02953329093533602, -0.0001279498980050462, 149326000000, 
-0.03536993283872396, 0.004710161034921252, 0.00022571020099094088, 149331000000, 
-0.05573714514395263, -0.0004925559419295253, 1.0730228116247462e-05, 149336000000, 
-0.07558826650801521, 0.006832035560168723, 0.00027614814846649413, 149341000000, 
-0.056888729490794036, -0.01419788894046007, -0.0001370340452441207, 149346000000, 
-0.0511422797557423, -0.0030225984970103197, 0.00013943016161131858, 149351000000, 
-0.050149143099728004, -0.03204919789378349, -0.0002884672757158537, 149356000000, 
-0.09510589545413153, 0.05790595056155881, 1.622562780153969e-05, 149361000000, 
-0.03975467244238058, 0.019585218992607095, 0.0002348434633651649, 149366000000, 
-0.04317465165735772, 0.018891370332927836, 0.0002749369188072728, 149371000000, 
-0.0448423305718354, 0.04053176908580818, -0.00020493240305762247, 149376000000, 
-0.04745494669704642, 0.028239178649599093, 5.9555816272220296e-05, 149381000000, 
-0.03618459688673701, -0.009903429506635121, 6.710461923418078e-05, 149386000000, 
-0.061521665594706725, 0.029083771605237337, 0.00021821833593752327, 149391000000, 
-0.05914028734299695, -0.012783677620262498, -0.0001093927676646139, 149396000000, 
-0.059016564165051466, -0.011313221325562253, 6.836019230422576e-05, 149401000000, 
-0.04303818040355039, -0.0051157380753734044, 0.00013179576721662913, 149406000000, 
-0.06208573520291715, 0.02656266912170556, 0.0001263134729244886, 149411000000, 
-0.06809201211131707, 0.00619559781252911, -8.273250307621233e-05, 149416000000, 
-0.03036221687593884, -0.006505371262524624, 6.410530948110306e-06, 149421000000, 
-0.04238392413156575, 0.010367808259174778, -0.00015909627706552721, 149426000000, 
-0.079578675642382, 0.004685108295352016, 0.0003429772276610564, 149431000000, 
-0.08892031414221267, -0.00891622472879223, 9.073287960926231e-05, 149437000000, 
-0.06257820099799905, -0.010482946659947206, 7.882549798552374e-05, 149442000000, 
-0.07825405417734996, 0.033058283520396935, -4.2111334842509884e-05, 149447000000, 
-0.060502690439693294, 0.01250527607970743, 0.00016689432166129865, 149452000000, 
-0.06895333331167625, -0.0008056284894539575, -9.248094700312308e-05, 149457000000, 
-0.053224101857828526, 0.0026403391690334238, -3.725824235223259e-05, 149462000000, 
-0.05976251319504959, 0.0029363071655519007, -4.6020309409867576e-05, 149467000000, 
-0.04927113179573888, -0.0099303763506749, 0.00011275816111025663, 149472000000, 
-0.027318997638577747, 0.01143083423459073, 5.9703588650974164e-05, 149477000000, 
-0.0591646185695669, 0.030897424519476236, -0.00011600733881753176, 149482000000, 
-0.0316466009908596, 0.0248316176889075, -0.0004220537122483099, 149487000000, 
-0.04349460113645321, 0.005003714382330426, -0.0002431235419336646, 149492000000, 
-0.064583001822834, -0.00902409115683653, 0.0001317633143498772, 149497000000, 
-0.049908897248516014, 0.0008927700287852899, 0.00013933906272326366, 149502000000, 
-0.0625930321938901, 0.007223155344049871, 7.237621329666391e-05, 149507000000, 
-0.054181145814145557, -0.0007637399294962597, -0.00030576896222323966, 149512000000, 
-0.05441664436421379, -0.007383522949109479, -1.6368920375634094e-05, 149517000000, 
-0.05648254399017716, 0.018931584874944233, 9.176277593205959e-05, 149522000000, 
-0.04860777162498427, 0.01021979777808803, 3.594871641253862e-05, 149527000000, 
-0.07621419370622594, -0.01285603940605778, 1.3710404014573118e-05, 149532000000, 
-0.06896518701772347, 0.02429344442673138, 0.00026817227043571777, 149537000000, 
-0.06897858188927684, -0.011791975823024319, 3.7288500554726386e-06, 149542000000, 
-0.06194685987827633, 0.01615821793645082, -0.00021303908309259746, 149547000000, 
-0.07244621902687394, 0.018913575502453952, 0.00021439244099645083, 149552000000, 
-0.07165182941337153, 0.03356656901253996, 0.00013282693446527134, 149557000000, 
-0.08356018171404515, 0.023861311506215323, 0.0003619815441935621, 149562000000, 
-0.0702606170157365, 0.024628680836311527, 8.018147766066406e-05, 149567000000, 
-0.040568979027186924, -0.013232574656129623, 0.0001033070411145272, 149572000000, 
-0.05467914849411537, -0.013637226533155376, -9.612221775763363e-05, 149577000000, 
-0.07171264193332903, 0.0048085576569355925, -0.00024857435528981617, 149582000000, 
-0.057289424932510095, -0.0075970743237548915, 0.00016773857744990485, 149587000000, 
-0.06012188289582675, -0.0019671091421622493, 0.00011613322042414032, 149592000000, 
-0.06209659094477473, 0.008868836613592244, -2.2287495736634833e-05, 149597000000, 
-0.060597591350617104, 0.004056384722101279, 0.00023415943910108905, 149602000000, 
-0.08169568476466116, -0.011815267572797362, 0.00027736733753563273, 149607000000, 
-0.05598481042777288, -0.028431029937835667, -9.333731937723744e-05, 149612000000, 
-0.07360632690627067, -0.022222182823191054, -6.137742582011417e-05, 149617000000, 
-0.04643621975261411, 0.005925749505981865, -9.796747111753145e-05, 149622000000, 
-0.05358531953801035, -0.021962982825926763, -4.429927698658237e-05, 149627000000, 
-0.07909835095670838, 0.01757768451669229, -6.152624524388501e-05, 149632000000, 
-0.05507040398100825, 0.03080709503761893, -0.0002294350280501317, 149637000000, 
-0.060892555234592485, 0.013308073602941634, -0.00018591299634417323, 149642000000, 
-0.05431334166341779, 0.0279101461242423, -0.00040973168278285433, 149647000000, 
-0.038830286114479855, 0.014831222608851065, 0.00032228948346110727, 149652000000, 
-0.06449925872093479, -0.009244066805423798, 4.125756459451249e-05, 149657000000, 
-0.02482758550157146, -0.008017672265322838, -0.00012663204846385901, 149662000000, 
-0.04943509743005096, 0.012274704251970341, 2.0316807466235355e-06, 149667000000, 
-0.05785263524607963, 0.0216142732526549, -6.863114331469846e-05, 149672000000, 
-0.057780500852971865, -0.01896118382611888, -0.0001508853045615968, 149677000000, 
-0.05339688322952275, 0.009841606641255635, -0.00021767529213651723, 149682000000, 
-0.02850045454067889, -0.004838867003113739, 0.00035685899351652067, 149687000000, 
-0.09177148108881066, -0.019456626065204798, -7.027947020506646e-05, 149692000000, 
-0.07162202299439831, -0.00805117466759478, 5.045500452304893e-05, 149697000000, 
-0.06474044708103772, -0.02140844899047957, 0.0001363846043806371, 149702000000, 
-0.03518638294887433, 0.020025008073002094, 0.00016626435107602581, 149707000000, 
-0.0719420200170007, 0.012311564027805703, 0.0001434352677243403, 149712000000, 
-0.05068829821122192, 0.01249666351258218, -8.100988096085835e-05, 149717000000, 
-0.09356338512992107, -0.024727540617098448, 0.00032692558545373805, 149722000000, 
-0.06804906126427357, 0.015512582068803342, 8.229283882569793e-05, 149727000000, 
-0.08579953857970697, -0.008984024082131802, -0.00021760457894931095, 149732000000, 
-0.06471081235622667, 0.010859356989353579, 9.59727674352884e-05, 149737000000, 
-0.05641417128532554, 0.006888530247385845, -0.00022530675445127057, 149742000000, 
-0.057797054230923975, -0.02575495583617893, 0.00018659462634986937, 149747000000, 
-0.07716225384884887, -0.013910489152631586, -6.347115033984862e-05, 149752000000, 
-0.04440655972127011, 0.007299105666002604, 0.000296675346497665, 149757000000, 
-0.06843619247233267, 0.0006772525636104189, 0.000100063758707544, 149762000000, 
-0.05001324149007169, -0.018378412709440708, 9.665448226492136e-05, 149767000000, 
-0.058888762747344475, 0.007194507676139725, -0.00020449541978134753, 149772000000, 
-0.08842716529178012, 0.040184072861595865, -0.0003239730808047149, 149777000000, 
-0.04745266588447422, 0.022133682178967922, 5.725093523174226e-05, 149782000000, 
-0.038442860321339076, 0.008224134385884348, 4.961902532225451e-05, 149787000000, 
-0.01992957814153929, 0.005031288150471393, 0.00012272968341175042, 149792000000, 
-0.06783743653053748, -0.015716104716398935, 0.00027577392355993945, 149797000000, 
-0.07139989616758026, -0.0061017825647330624, 8.868771600340675e-05, 149802000000, 
-0.04373756139627954, 0.033877003405227764, 0.0001656097575468206, 149807000000, 
-0.057094517584663364, -0.010309540860946403, -8.561604462179205e-05, 149812000000, 
-0.05432428472897338, 0.02289419254353242, 0.00013144803114519292, 149817000000, 
-0.039634861950795304, -0.00995334046541135, -0.0007209391999362674, 149822000000, 
-0.051032444040977336, 0.0009290738405845242, 0.0002497998515077528, 149827000000, 
-0.05183606426686967, 0.013557808017440222, -3.0937689057619765e-05, 149832000000, 
-0.046368246676927204, -9.845531666870765e-05, -4.569966683615967e-05, 149837000000, 
-0.05092309177439752, -0.018189102674184936, -8.323502875159659e-05, 149842000000, 
-0.06252400344687827, -0.017016532530048444, -0.00024007943943577754, 149847000000, 
-0.038650151371485725, -0.002320097549341478, 0.00023653310769468873, 149852000000, 
-0.06813691377804798, 0.008705036469214684, -6.968672196991301e-06, 149857000000, 
-0.07027957211596746, 0.024450211125827296, -4.125358152800846e-05, 149862000000, 
-0.03388106407574136, 0.02233773442849653, 0.000279953171429012, 149867000000, 
-0.04763633920489544, -0.003436419193011151, -0.00037176107988514745, 149872000000, 
-0.07414943172447787, 0.018761608472419564, -0.00040906970525835917, 149877000000, 
-0.03241471160077386, 0.012213681497352882, -5.8628838698027594e-05, 149882000000, 
-0.06136405342885726, -0.03825395129828832, 0.00031338868707730304, 149887000000, 
-0.03988222815614342, 0.010318400880533578, -0.00021030769092517706, 149892000000, 
-0.06415895821341143, 0.002569512470226365, 0.00024686364676936446, 149897000000, 
-0.0503764924348757, -0.02695957071458353, 5.725936877835764e-05, 149902000000, 
-0.026902859449050458, -0.011619479467125847, -0.00015384499975154017, 149907000000, 
-0.044690451923208176, 0.025459917701504624, -0.00010702620881168218, 149912000000, 
-0.03593936431479845, -0.0012657469719726858, -3.213594037675282e-06, 149917000000, 
-0.042126057553164856, 0.02202482535985381, 8.234310048546979e-05, 149922000000, 
-0.0448149109618126, -0.004657215891338835, 1.8895901335883518e-06, 149927000000, 
-0.05620666475622595, 0.0210030906707901, 0.0003173796764365004, 149933000000, 
-0.03134106419686669, 0.01053295815201415, 0.00032337631802511146, 149938000000, 
-0.03460566661197005, 0.034403551556613655, 0.0002426659824201911, 149943000000, 
-0.053910835459920856, 0.03146768086795538, -2.2265879674202656e-06, 149948000000, 
-0.06768901015236464, 0.018404216467466983, 0.00019740037028130475, 149953000000, 
-0.07663027907078114, -0.011580646463916894, 2.4147708856021434e-07, 149958000000, 
-0.05990129911426374, 0.031252881805846275, 1.3767667958736815e-05, 149963000000, 
-0.07313089348421282, 0.0011199945601880808, 0.00011713324236132173, 149968000000, 
-0.07632810784967767, -0.01937910678133357, -0.00010447672127841503, 149973000000, 
-0.05186901723610514, 0.022934841653609674, -0.0001703866297830135, 149978000000, 
-0.042910224222293986, -0.023143183792090155, 0.00020769930952391037, 149983000000, 
-0.06674888001684742, 0.002236035035774249, -3.493081880716452e-05, 149988000000, 
-0.045144111495360746, 0.008612399039996846, 0.00017539772545341776, 149993000000, 
-0.02508481259602745, 0.0029598585880195615, -0.00038941501127576504, 149998000000, 
-0.04595972036340293, 0.003119764823852777, -7.625239503499925e-05, 150003000000, 
-0.05695126360496973, -0.03158944065811963, 1.4875370806233162e-05, 150008000000, 
-0.05751177900877258, -0.006907656470914214, 0.0001246418009124488, 150013000000, 
-0.06855480682389806, 0.013079950794411797, -0.00015014287510597258, 150018000000, 
-0.03732003234205375, -0.01177926374341157, 3.241857944830367e-05, 150023000000, 
-0.06393006250532514, 0.033206312076623584, 0.0003267008152894368, 150028000000, 
-0.04449889629584368, 0.012457818631237728, 0.00010742900755468323, 150033000000, 
-0.04842909570679537, -0.01365744720445532, 0.0004910748953354267, 150038000000, 
-0.07398707247112558, -0.017090007295940967, 7.771781152579643e-05, 150043000000, 
-0.05811058428628194, -0.010127723381835535, 8.51425553297246e-05, 150048000000, 
-0.046764161131246686, 0.01576481805268553, 0.000258337960796445, 150053000000, 
-0.07846246191854034, -0.03405468052480489, 0.00012766792870815596, 150058000000, 
-0.05832019632902572, 0.024537576263353105, 0.00019927914789167304, 150063000000, 
-0.04935967178222866, 0.003715935826589945, -0.00018409409173813512, 150068000000, 
-0.02681660740175475, -0.0008477818497868829, 0.00027864148515455617, 150073000000, 
-0.023060322369249854, -0.008997965185275878, 5.8439578489890594e-05, 150078000000, 
-0.05495055176328837, -0.020336862355581777, -6.439337973533751e-05, 150083000000, 
-0.05351870662404071, -0.0008892369003146209, -0.0002739504838419397, 150088000000, 
-0.04170725833672015, -0.0006854332609195148, -0.0001603686443281746, 150093000000, 
-0.06270387168550004, -0.02403524832531896, -9.535114581698574e-05, 150098000000, 
-0.0468119200864565, 0.02197449009287179, 3.739862938722866e-05, 150103000000, 
-0.04828770905046306, -0.011733486674994997, 0.0001375003293494439, 150108000000, 
-0.040077963335736586, 0.025372267134454753, -1.1285127718385623e-06, 150113000000, 
-0.05552922043150131, 0.005636521215928872, -1.0138102255703788e-05, 150118000000, 
-0.035182311120445134, 0.038626721740704646, 0.00029264029690330006, 150123000000, 
-0.042088920039815375, 0.012341793991703136, -0.00010577243935036254, 150128000000, 
-0.042168050654719416, 0.007671787488549239, -0.0002697921520688281, 150133000000, 
-0.054781538866359766, -0.002641062315410129, -0.00028074675032102326, 150138000000, 
-0.05085777451938339, 0.005062878923680544, 0.00016740541133140996, 150143000000, 
-0.05094698998921532, -0.0039040926608359433, -0.00014776819117770068, 150148000000, 
-0.06151791326424776, 0.011524227726567067, -5.4938166610566945e-06, 150153000000, 
-0.029064350727365088, -0.0025486069741223407, -0.0005339956039980214, 150158000000, 
-0.07145196395392418, -0.011809904518144855, 1.9756028508522842e-05, 150163000000, 
-0.06103111779028007, -0.021526629379410078, 1.34950705179714e-05, 150168000000, 
-0.045351662917288184, 0.03465091314306455, 6.170730781860547e-05, 150173000000, 
-0.06333300237971123, -0.024654273738180896, -0.0001373988446418422, 150178000000, 
-0.034729184246917566, 0.0024373505573584576, 0.00012828221824584643, 150183000000, 
-0.030672884460805683, 0.012066613569997523, -0.00021242781775137934, 150188000000, 
-0.06549667416438194, 0.000127065142334517, 0.00010264600952297745, 150193000000, 
-0.06418432402021935, 0.012319496891334769, -0.0003365551160209652, 150198000000, 
-0.05341903666722603, -0.0158093895780993, 0.00013191181500957406, 150203000000, 
-0.05853055201046281, 0.018734258344696678, -0.00017001955794343447, 150208000000, 
-0.06738259845204488, -0.009761847100117503, -0.0001813005176248316, 150213000000, 
-0.045991226014605445, -0.0005912838563364932, 0.00023089384898045525, 150218000000, 
-0.06875534400944171, -0.005372207461107066, 0.00010166920537508257, 150223000000, 
-0.04735244385369602, 0.012294114053538793, -0.0003120803157103766, 150228000000, 
-0.09803550540512596, 0.023000879852617943, -0.00015815708985696347, 150233000000, 
-0.05622212127944986, 0.016268069566929222, 7.886546670103417e-05, 150239000000, 
-0.0321172563857215, -0.0005419046257543196, -0.00028107459968295154, 150244000000, 
-0.04470404711050892, -0.021866727228852897, 0.0003809293086380886, 150249000000, 
-0.05493289054216741, -0.00828165444843702, 2.724995626478348e-05, 150254000000, 
-0.0667256750142259, -0.007968259155242206, -7.138202912403842e-05, 150259000000, 
-0.050147374677986564, 0.017637930651606046, -6.617747178899272e-05, 150264000000, 
-0.04786094473702222, 0.021279545423384463, -0.0001081959505488427, 150269000000, 
-0.06303652538738973, 0.003926020602009778, -0.00041541697348135384, 150274000000, 
-0.030853578662498143, -0.018890808087607996, -0.00023305141323591577, 150279000000, 
-0.06659707302887172, -0.00011280495073381219, -9.800358732540769e-05, 150284000000, 
-0.05411543980299284, 0.010350597208780772, -6.333061629581946e-05, 150289000000, 
-0.040173171825782734, -0.02894574856426463, -0.00034585157293146344, 150294000000, 
-0.06907365404096832, 0.003195006458849125, 0.00019208371670692928, 150299000000, 
-0.055876050742707295, 0.008003554094408059, 0.0007120294351790643, 150304000000, 
-0.049217140608148045, -0.00807769027240709, -0.00017618589800243444, 150309000000, 
-0.069833966491348, -0.007039096846679953, 0.00021419677437502495, 150314000000, 
-0.04679785148592066, -0.017672207356997843, -0.000227290200607837, 150320000000, 
-0.07958177929981751, -0.0150798906070726, 0.0002534981353652868, 150325000000, 
-0.03504789509384835, 0.018293194351202857, 0.00012877359738685303, 150330000000, 
-0.04960855720568636, -0.026112358736935362, -0.00039371358824327686, 150335000000, 
-0.08568241090408367, 0.016829880830657964, 0.00010981650774105393, 150340000000, 
-0.0785832965161226, 0.01659774210868288, 0.0003897675574974997, 150345000000, 
-0.05454993357514226, 0.009572390142629665, 0.00026551418315618055, 150350000000, 
-0.051984154160723654, -0.019520709466293376, -7.768711533989e-06, 150355000000, 
-0.04167632958737765, 0.03268572118594012, 0.00017955719245761192, 150360000000, 
-0.08003158989627654, -0.0058395663662415935, -7.242691796975276e-05, 150365000000, 
-0.055599084662535735, -0.025388176013419375, -7.635501598974202e-05, 150370000000, 
-0.08632659052310557, -0.013270062997516308, -3.1028605754797914e-05, 150375000000, 
-0.04611911458796218, 0.010700091498478483, 0.0001200532274850556, 150380000000, 
-0.05269847220435308, -0.042219900365907184, -0.00027974952481517383, 150385000000, 
-0.07407279970680956, 0.01251639517221632, 9.178258536813298e-05, 150390000000, 
-0.07002091460381914, -0.02260814273424786, 5.903789963660629e-05, 150395000000, 
-0.03882709907538885, -0.01026775806148042, 0.00018656066173342414, 150400000000, 
-0.05976324149293983, 0.012145421890041228, 0.00019568149736618246, 150405000000, 
-0.025106258816710046, -0.018287224552946686, 3.1239196883176764e-05, 150410000000, 
-0.05857931491780212, -0.01166341532974783, 0.0005279567216672225, 150415000000, 
-0.036486777323070846, -0.011819595418812858, -9.464060370458375e-05, 150420000000, 
-0.07239244608703982, 0.00418015579916694, -5.4562935412278455e-05, 150425000000, 
-0.038982812067038915, 0.04195185092959437, -0.00012715908287077866, 150430000000, 
-0.03015271777702365, 0.02411454942889623, -0.00010645331583034716, 150435000000, 
-0.05679042929743545, 0.00030886217323124513, -0.00011231445334061786, 150440000000, 
-0.06120402239313809, -0.0035410430496814436, -0.0001196809372930339, 150445000000, 
-0.049312400938729566, 0.003594489911366035, 5.777305281308529e-05, 150450000000, 
-0.037820122317704624, 0.00032239800517507066, -0.00015902579186735611, 150455000000, 
-0.04067204935226686, -0.005902796159935926, 0.00011937375626488294, 150460000000, 
-0.05357378800337956, 0.01640897260643302, -7.213552015944826e-05, 150465000000, 
-0.04298899202169079, 0.012614400984599674, 6.114772591935028e-05, 150470000000, 
-0.03475386929473597, 0.01688873091199532, 0.00019157973808901026, 150475000000, 
-0.0510814727510437, 0.03235707386094175, -1.5678002087177404e-05, 150480000000, 
-0.03472313567983816, 0.023713655477972405, 0.00030058106441420863, 150485000000, 
-0.05111433948760977, -0.005481501815310912, 3.150429365418725e-05, 150490000000, 
-0.06262682425950569, -0.0046430933288411766, -0.00020719510411989413, 150495000000, 
-0.10009079824086885, -0.002273910742965905, -0.00022428104722224245, 150500000000, 
-0.05291348915830345, -0.004861023322712094, 8.188026630807425e-05, 150505000000, 
-0.06052454570755838, 0.025283450592993147, -0.00024623170755082026, 150510000000, 
-0.06157238272029208, 0.008922533501693877, -0.00016654640621625576, 150515000000, 
-0.07309479018740175, 0.021808828357971256, 0.00017068395490462207, 150520000000, 
-0.048556194147250105, 0.004663174576050572, 7.336420652158707e-05, 150525000000, 
-0.03388693658325344, -0.01233576653242651, 0.00016967711597453398, 150530000000, 
-0.04533977533291023, -0.020765684237886894, -2.1724938336775085e-05, 150535000000, 
-0.05277077196385467, -0.008324459733607122, 0.0002240866842175151, 150540000000, 
-0.0856940162808705, 0.013229150414307247, 0.0006640827890225797, 150545000000, 
-0.06350995776749163, -0.00831503045694748, -0.00017593857870394622, 150550000000, 
-0.06648102580062569, -0.0018890882136588846, -0.0001273623046224951, 150555000000, 
-0.06289523776898433, 0.01813824926210097, 0.0003202483573439821, 150560000000, 
-0.07714953873479274, -0.0007290506618912488, -1.729893707006791e-05, 150565000000, 
-0.03991568047680834, -0.013643175271395093, 0.00029714821643970753, 150570000000, 
-0.040256171660553744, 0.023021245634207772, -0.0001951535462915516, 150575000000, 
-0.060378788156027215, 0.020896196994710493, -0.00035120272739384796, 150580000000, 
-0.07962377420324734, 0.008167961622375881, 0.0001813334520944699, 150585000000, 
-0.023976205592867644, 0.022055144631893148, -0.00042883029633514896, 150590000000, 
-0.0718045939789543, -0.0045735347419165245, -8.697840297868984e-05, 150595000000, 
-0.022829496999492396, 0.024786352433219385, -0.00022626084271852316, 150600000000, 
-0.051570833203121634, 0.00637787760362748, 0.00021343036315583938, 150605000000, 
-0.041433784770339765, -0.014321076202223192, 0.00022411271564662212, 150610000000, 
-0.0657431183644341, -0.02146400056302192, 0.00028916581307128004, 150615000000, 
-0.03145172369542645, 0.019965677752797378, -0.00025828689801308, 150620000000, 
-0.056459494617707134, -0.010222252571594963, 0.0003104346136796023, 150625000000, 
-0.03410123797477782, -0.005839025856946268, -0.00022055932305394807, 150630000000, 
-0.056964417988895746, 0.020952056719239335, 5.5104771955754155e-05, 150635000000, 
-0.0664915355581888, -0.008608388397594214, 0.00021887369509592298, 150640000000, 
-0.04888374272870696, 0.0027325030412225404, 0.00035478470978076706, 150645000000, 
-0.04592332492052775, -0.013740080028314039, -0.0001020922426648666, 150650000000, 
-0.07965910887837688, 0.002627958943094252, -0.00018578636858759273, 150655000000, 
-0.053503961308921724, -0.00438256282705345, 4.8221789933449494e-05, 150660000000, 
-0.08375759205427598, 0.0016716172711026941, 0.00016195867366236718, 150665000000, 
-0.021180073850315524, -0.009815657139191667, -0.00019909626094482486, 150670000000, 
-0.08965045999335262, -0.019876321151467428, 0.00014116204769960093, 150675000000, 
-0.04993345087821762, 0.007277571399512292, 0.00025470146412947154, 150680000000, 
-0.056473750826966096, 0.009390662856605104, 0.00015590564579289983, 150685000000, 
-0.05052200318633247, -0.006876314285399343, -1.2973546350040853e-05, 150690000000, 
-0.04832865342313341, -0.0008133667291561819, -0.0001405222963388102, 150695000000, 
-0.05965739626883624, 0.006435800152510664, 0.00025247148883590745, 150700000000, 
-0.04891190454104053, -0.005788937200917908, -0.00019926299764394455, 150705000000, 
-0.06029735660929538, -0.009165933926105315, -0.00024319057101941514, 150710000000, 
-0.051566523046636274, 0.0029408163625544983, -0.00036085041380995165, 150715000000, 
-0.06601336497849208, -0.02718544425685047, -0.00021628324625806993, 150720000000, 
-0.053499920845518315, 0.00021339492099355269, 0.000431282314811349, 150725000000, 
-0.059216774784231915, -0.017024055034676782, -0.00014529194333994633, 150730000000, 
-0.06632100084528675, 0.008800251279642884, -5.370922995090868e-05, 150735000000, 
-0.059711225571635836, -0.015605634205607195, 0.0003655251107876359, 150740000000, 
-0.04855010108027734, -0.013985451983609027, -0.0003204209132584595, 150745000000, 
-0.038660445218973924, 0.017657579027764974, 1.6461441189830878e-06, 150750000000, 
-0.0440266529852504, -0.014009241326871896, 9.035444290183293e-05, 150755000000, 
-0.05946015913826095, -0.00867158631991421, 3.150018279069314e-05, 150760000000, 
-0.06570544256423022, -0.011139065827658943, 0.00023936021765221552, 150765000000, 
-0.051475880087358164, 0.031354403717334306, 0.0003789166003339974, 150770000000, 
-0.04001621838778725, -0.0016612288458417053, 6.177057880113613e-05, 150775000000, 
-0.07904862502169839, -0.008887042192816852, 0.0001558893881410933, 150780000000, 
-0.042831514929092145, -0.0028910155744733866, 5.3700412045015076e-05, 150785000000, 
-0.0446205348712303, -0.015067022392081617, -1.2876425203979367e-05, 150790000000, 
-0.0655745353145179, -0.00196025470853122, 1.3179642595191512e-05, 150795000000, 
-0.06478189771618241, 0.012938933943574316, 9.277676312600279e-05, 150800000000, 
-0.027045854810050507, 0.026558554570117358, 3.3434776086548656e-05, 150805000000, 
-0.06635270727680805, -0.011753297953343806, -0.00014244147326074625, 150810000000, 
-0.07672694919014342, 0.019764467927790512, 0.00031561284450509297, 150815000000, 
-0.05120705593921936, 0.003205206978976748, -2.6797396357264458e-05, 150820000000, 
-0.05389042400259862, 0.04415952637243025, -0.00023574896167473554, 150825000000, 
-0.05832898869972455, 0.023598261444669193, 0.00017150156314026582, 150830000000, 
-0.0697877930046332, 0.015612480711480135, -0.00022946063596020533, 150835000000, 
-0.06099658371492425, -0.0007085918202925144, 8.596711627718744e-05, 150840000000, 
-0.07652502537771805, 0.019933768174016753, -0.0002580333802916533, 150845000000, 
-0.0553964329529359, 0.012872847173184819, 0.00013259871513281483, 150850000000, 
-0.04646468872105036, 0.011617071390277544, 0.00011131115353937471, 150855000000, 
-0.06855805151890837, 0.02033476681659757, 0.00032822700639913936, 150860000000, 
-0.06159795968055778, -0.005960648991014523, 2.4006760945971806e-05, 150865000000, 
-0.0593091789882446, 0.020938698135344, 3.9155401596434466e-05, 150870000000, 
-0.04890317572878219, -0.0013505706767125464, -8.542389016824342e-05, 150875000000, 
-0.05841756390586116, -0.005764917910567973, 0.0001552789276739917, 150880000000, 
-0.06897604636068812, -0.003856515726787466, -0.00011445140813593974, 150885000000, 
-0.06091278119662674, -0.008166178690965822, 2.9799769099772462e-05, 150890000000, 
-0.03731134910332297, 0.029846244220949343, 9.151005898118412e-06, 150895000000, 
-0.0471500203170218, 0.013939904172097534, -5.373156523880585e-05, 150900000000, 
-0.06216787911001473, -0.004869855676188348, -0.0002300291285062375, 150905000000, 
-0.06709568512078243, -0.018394552312142726, -8.727350763717726e-05, 150910000000, 
-0.07413708387772946, 0.00043890527679398927, 0.00018434231001429328, 150915000000, 
-0.049689532454981145, -0.02241612032533087, 4.7664705588971375e-05, 150920000000, 
-0.03491766834067613, -0.0030169947754943582, -0.0002762744356046883, 150925000000, 
-0.06094812336285011, -0.019480117022782406, -0.0003102187426338177, 150930000000, 
-0.06519941345610966, -0.019149974586890585, 9.958573346919441e-05, 150935000000, 
-0.08634671696712884, -0.0066870613091021824, -2.5161960783198767e-05, 150940000000, 
-0.027278789946243776, -0.011447309587092074, -0.0001929133765481493, 150945000000, 
-0.04209214773953016, -0.002813053627710585, -0.00015097982733591904, 150950000000, 
-0.044323926356069444, 0.016384485712806048, 0.0002992923135383663, 150955000000, 
-0.07136516910331399, 0.013617957599774428, -3.106810462151074e-05, 150960000000, 
-0.04989027131394046, 0.014737814977798865, 4.155709355982887e-05, 150965000000, 
-0.06748832579949916, -0.01654339147924093, -3.175447563286241e-05, 150970000000, 
-0.09174174209919636, -0.013022899909495343, 0.0001117722983595541, 150975000000, 
-0.046373686579218074, 0.004897451501361672, -0.0005907261091194179, 150980000000, 
-0.06748506383913268, -0.017435118304774705, 0.00038115863190255983, 150985000000, 
-0.05772546037473707, 0.034111845458566825, -3.494105389338276e-05, 150990000000, 
-0.05411509729207956, 0.02211251163109532, -6.986078933019119e-05, 150995000000, 
-0.04442293494150512, 0.032799796132985844, 0.0006781735631105007, 151000000000, 
-0.06235272827087549, 0.007575833760379262, 0.0003300796619281541, 151005000000, 
-0.08265259984424156, 0.028584737277288094, -3.386099127773768e-05, 151010000000, 
-0.048482095457808315, -0.00946657889854056, 0.00029202086543743486, 151015000000, 
-0.0520500875549269, -0.002770239186637361, -0.00015314594300583502, 151020000000, 
-0.06880496844608797, -0.017432991984688888, 4.748749023497957e-05, 151025000000, 
-0.0774076286295525, 0.006486666553424012, 0.0001101457331364637, 151030000000, 
-0.07741140745378812, 0.0036217905703396945, -4.027582603606837e-06, 151035000000, 
-0.041169087293334364, 0.04110279714738828, 0.0001382334304558935, 151040000000, 
-0.07249813261988826, -0.023491414139629945, -0.00015989351271991935, 151045000000, 
-0.042533148224991255, -0.03878787214281471, -0.00024563598409222916, 151050000000, 
-0.07945534876860988, 0.003814541553296312, -5.5188768199677184e-05, 151055000000, 
-0.0365765804068556, 0.020409084188632663, -0.0001321626395433017, 151060000000, 
-0.056497358465525796, 0.01078433599913023, 0.00010328067989529307, 151065000000, 
-0.03613667915406857, -0.005630128877318887, 0.00016359302397345594, 151070000000, 
-0.047010965500852306, -0.012380374244504201, 7.890772283348653e-05, 151075000000, 
-0.04999739291782683, -0.0013795391588838045, -0.0004691063811978858, 151080000000, 
-0.07286255175186965, 0.029971035938743264, 0.00015724480182031513, 151085000000, 
-0.05811030394710252, 0.004326254049412594, -9.340766557142073e-05, 151090000000, 
-0.04359707277912604, 0.003838528389652149, 1.0686366517201411e-05, 151095000000, 
-0.05665634566328105, 0.02314654815015919, -0.00016098029937426205, 151100000000, 
-0.035930181498174375, 0.003907444596932838, -4.173256618784364e-05, 151105000000, 
-0.03604888219773937, -0.0014546206046424626, 0.00016357279007491745, 151110000000, 
-0.033645326234613505, 0.00017770737082630622, 1.3836928322228328e-05, 151115000000, 
-0.04251583105287787, 0.01953976389984853, -0.00013454047184208973, 151120000000, 
-0.07455539211129072, -0.009807832691020571, 0.00039989910249107997, 151125000000, 
-0.04543774253056223, 0.001193111546500569, 0.00021387003667660382, 151130000000, 
-0.07447513496161473, 0.012985182211511636, 6.948869002543173e-05, 151135000000, 
-0.06092051143117879, -0.025204683849122427, -0.0004598680862501405, 151140000000, 
-0.07067725943831354, -0.024872200553780692, 0.0001441923804700018, 151145000000, 
-0.05659149839353904, -0.04094694836853339, -3.639294709615153e-05, 151150000000, 
-0.0970214996230018, 0.006725988628003969, -1.5636255289426298e-05, 151155000000, 
-0.04350395003035629, -0.0014230893207989187, -0.00012883954649564057, 151160000000, 
-0.04948628867981741, 0.001167320885838792, 0.0001357546375319775, 151165000000, 
-0.07746176157004739, 0.026615285329650473, 3.638884686644799e-05, 151170000000, 
-0.05918878079960703, 0.011428125294804156, 7.2395986452428e-05, 151175000000, 
-0.06488838793662409, 0.00021736259763751773, -7.06437019895704e-05, 151180000000, 
-0.030068472462107927, 0.01135968525384269, -0.0001429078822398969, 151185000000, 
-0.07618996032699529, -0.011675161321965805, -1.753504931721852e-05, 151190000000, 
-0.04685286657492018, 0.011538589282259471, -0.00011588203576483064, 151195000000, 
-0.055771241476019875, 0.0031146593764488925, 0.00044563717276698656, 151200000000, 
-0.03522445324964133, 0.004746475477124575, -2.8099580331687622e-05, 151205000000, 
-0.05895239933610032, 0.012770448335602815, 0.00048454629521437755, 151210000000, 
-0.03540646744787267, 0.012571797801633932, -0.00011695248151242043, 151215000000, 
-0.028503798101971286, 0.012567219865082422, 6.275077293422596e-05, 151220000000, 
-0.03289190387468618, 0.01129768379275081, 0.00027264604740416466, 151225000000, 
-0.035492342479074915, -0.007681491931772094, -0.0002111251329742186, 151230000000, 
-0.09392568855763561, 0.014485295636802785, -6.19587621240904e-05, 151235000000, 
-0.07284984870691795, 0.008079357266865827, -5.63347860805698e-05, 151240000000, 
-0.041403250076702675, -0.00624120177933765, -5.0230180476085437e-05, 151245000000, 
-0.03980177204074503, -0.04212020491972442, 8.31887342107215e-05, 151250000000, 
-0.0778368943018706, 0.01616989558624788, -0.0003519408428184529, 151255000000, 
-0.07150364857112726, 0.003653442727621709, -0.0002424626585679511, 151260000000, 
-0.0495567407221683, -0.012826093418657026, 0.00011825317587516437, 151265000000, 
-0.034414310529580175, -0.016190531953582492, 8.662003493145155e-05, 151270000000, 
-0.06019756431967093, 0.0013547536517288592, 0.00046877074468079215, 151275000000, 
-0.08388416003853955, 0.026217904196740277, 7.183530558643175e-05, 151280000000, 
-0.04929430016246451, -0.008436494645941053, -0.00017137311067876433, 151285000000, 
-0.0674875615195239, 0.012533413848899397, -8.837261405360743e-05, 151290000000, 
-0.058941786145006836, 0.024892952819036914, 0.00011432007088986146, 151295000000, 
-0.047965760810246394, -0.004028250455123016, 0.00011633475242663497, 151300000000, 
-0.0612990826858871, -0.006211862231673281, 8.611432322745672e-05, 151305000000, 
-0.051724317966525706, 0.020013324510310414, -0.00017384628517798714, 151310000000, 
-0.06945219348896436, 0.015054675561389196, 7.036993370325995e-05, 151315000000, 
-0.049691194048525525, 0.010640516359929107, -1.8698302572159845e-05, 151320000000, 
-0.07165834183040785, 0.03135763474205745, -7.249393158239128e-05, 151325000000, 
-0.07222998596835167, -0.010945713034172756, 6.212449233150753e-05, 151330000000, 
-0.05225265679831685, -0.004165233088811468, 0.0002652674024641924, 151335000000, 
-0.07807068175923698, 0.0023229013832192216, -0.00032083381397605005, 151340000000, 
-0.04420964092332624, 0.013973633519497675, -5.011783570024063e-05, 151345000000, 
-0.08725786979400246, 0.014043660183527592, -8.834600572281314e-05, 151350000000, 
-0.058855224769773354, 0.005624302807028202, -0.0003444515311087833, 151355000000, 
-0.07776609015532035, 0.02395261983614504, -0.00012341204239698877, 151360000000, 
-0.07120861612535442, -0.005442982315520556, -0.00039822090815844663, 151365000000, 
-0.05138076499424393, -0.0086199469916762, 0.00033270256488326656, 151370000000, 
-0.04767938410798976, -0.02161542471420751, 0.0001197781786180574, 151375000000, 
-0.09389078170977544, -0.013798643191763377, 0.00010234438307994654, 151380000000, 
-0.08081231852908072, 0.02572702325603339, -8.03495800753997e-05, 151385000000, 
-0.058079958896330705, -0.01692762174369317, -0.0001834163458074, 151390000000, 
-0.10134204294846352, 0.0017555429429316274, -0.00028082327207720574, 151395000000, 
-0.0510816349170368, 0.01123143193323601, 0.00012220326230416318, 151400000000, 
-0.06680163358777423, -0.01461652414130794, -0.0002459788771941307, 151405000000, 
-0.05818595927615608, 0.0006820160883517635, 0.00017654709763268532, 151410000000, 
-0.04119544598213219, 0.009872632132297242, 3.9293810037754366e-05, 151415000000, 
-0.051382236776836385, 0.005731353700792046, -0.00021916768653402035, 151420000000, 
-0.048356662431362864, 0.022141025986133815, -5.2972126061398686e-05, 151425000000, 
-0.05065296527422529, -0.010161626021800438, 6.08624613411704e-05, 151430000000, 
-0.05926623381759887, -0.017674894187645784, -5.470538634564439e-05, 151435000000, 
-0.1149864400078845, -0.004295774538915833, 0.00010415867182244297, 151440000000, 
-0.0363277360289368, -0.017701650374312688, -2.6129468173520598e-05, 151445000000, 
-0.03935213953299055, -0.012682149783369132, -0.00019370272111734465, 151450000000, 
-0.07187722429598123, 0.007410720067966223, -0.0003099467791277152, 151455000000, 
-0.07511491488810108, 0.02692636216544529, 0.0002885952886468216, 151460000000, 
-0.04088360628361551, 0.035356062650893805, 0.00032873880613701827, 151466000000, 
-0.048446659391691745, 0.01275082753516171, -0.0001030194537496868, 151471000000, 
-0.055626730756586945, -0.004755478723538426, 0.0001379855527223654, 151476000000, 
-0.058831706156233524, -0.03012727267578204, 9.685101130946934e-06, 151481000000, 
-0.04729128046410699, -0.004765768046580733, -0.00043535074184315183, 151486000000, 
-0.05455534591205272, 0.004389916991058578, -0.00012743718843544508, 151491000000, 
-0.05894589914539279, -0.012138417317048232, 0.00016038107224987383, 151496000000, 
-0.05110229529194977, -0.0037386520054183813, -0.0001096906311924259, 151501000000, 
-0.08494029119908625, -0.011191438395247916, 0.00026767300951287195, 151506000000, 
-0.07848486594426536, 0.00664093462853468, -0.00012848806223980801, 151511000000, 
-0.04903078011552885, -0.015582852006607955, -0.00031066214299091296, 151516000000, 
-0.05885967631137673, 0.014918956456347643, 0.0003570691140594873, 151521000000, 
-0.0557620169002105, 0.0057351167056789824, -0.0001517724128011074, 151526000000, 
-0.04573001370777005, -0.006161509476909294, 0.0002936851107675168, 151531000000, 
-0.04237442005516832, -0.019781623302805525, -0.0001380280846921571, 151536000000, 
-0.05917460520644422, 0.018573672583559128, 1.894267967240085e-05, 151541000000, 
-0.0672840770207245, 0.03343257708609366, 6.920928501361288e-05, 151546000000, 
-0.056142878774462356, 0.025071165911860115, 1.9991977029091365e-05, 151551000000, 
-0.07129975160922504, 0.008781241330625146, 0.00022979715746670388, 151556000000, 
-0.042474556108295106, -0.0007235023681538985, -1.6490207646250922e-05, 151561000000, 
-0.056308543656075315, -0.023727129734502594, 0.00021479087941581515, 151566000000, 
-0.050625809927251235, 0.0006496473735955765, 0.00022967564473010103, 151571000000, 
-0.05691067887761673, 0.03957580762292101, 0.00014553560119621732, 151577000000, 
-0.06593448990135499, -0.0038685107652058175, -7.725661597258267e-05, 151582000000, 
-0.0505838289469444, -0.01947277966869755, -2.212875699541951e-05, 151587000000, 
-0.039587497306824544, -0.014994493426982919, -0.00021368472556917566, 151592000000, 
-0.042916708001730836, -0.008813817934225985, -0.00022944083549894748, 151597000000, 
-0.06713161258238079, 0.02081950025118077, -3.933361545244026e-05, 151602000000, 
-0.048576709503025485, -0.03616382642448859, -4.2635578921042934e-05, 151607000000, 
-0.045080131034561446, -0.016197519995928285, -4.3481127354042506e-05, 151612000000, 
-0.05037627941260296, 0.010880253604558469, -6.491698022545811e-05, 151617000000, 
-0.07246217963191405, 0.011234590398734274, 8.081174969122771e-05, 151622000000, 
-0.061905046651189156, -0.01655526249161329, 9.822747344036999e-05, 151627000000, 
-0.05253417611646178, 0.0032888360540886505, -0.00017782931755692133, 151632000000, 
-0.0688916342943412, 0.0024391243221386968, -2.2831809486414194e-05, 151637000000, 
-0.05861196915682816, -0.01541848006134617, -0.00024812601267766945, 151642000000, 
-0.09645792900725443, 0.005958829441953099, -0.00021322492364447208, 151647000000, 
-0.049874903990163116, 0.002263502117635879, 9.154445700594255e-05, 151652000000, 
-0.06455206147933594, -0.0019386614838151901, -0.00015033887072136518, 151657000000, 
-0.08292701548933434, 0.02640251996648304, -0.0003394256285070524, 151662000000, 
-0.054633520521785016, -0.02548702625788899, 0.0001536224765689144, 151667000000, 
-0.07470054241184337, -0.01444425003595484, 6.318228445739092e-05, 151672000000, 
-0.06069788757250914, 0.021843626266825483, 0.00018984941330566692, 151677000000, 
-0.03314140785578862, 0.009853013123773822, 8.185312961854553e-05, 151682000000, 
0.028483282509300344, 0.0027746350414442266, -1.4743522085602394e-05, 151687000000, 
-0.08306287804147795, -0.0032301531658439128, -0.00011124846250286176, 151692000000, 
-0.055587075831550294, 0.028231800356024708, 0.00013765118618379129, 151697000000, 
-0.051138403457345306, 0.005774879714108345, -7.396949929325317e-05, 151702000000, 
-0.07178409258763363, 0.004051154480829987, -0.00010057999704243441, 151707000000, 
-0.07597347169775247, -0.0025792228621038353, 0.00011892848434837976, 151712000000, 
-0.02879709738473586, 0.02047620220795438, -3.513788715189886e-05, 151717000000, 
-0.022445927657006627, -0.0258161367365489, -0.00011222571834206112, 151722000000, 
-0.013445530734759306, 0.021354021736741696, 0.00016218956831218345, 151727000000, 
-0.05288945944899386, -0.031984442886916445, -0.00037946105285242105, 151732000000, 
-0.04134319485814174, 0.010115565887615903, 1.344248437894488e-05, 151737000000, 
-0.07061623031845804, 0.023010038045070742, 0.0005481439801591311, 151742000000, 
-0.06749959766297318, 0.0061043451416660085, -2.733079836063366e-05, 151747000000, 
-0.047107823129995015, 0.018848345899984433, -3.856556769371302e-05, 151752000000, 
-0.08202777702510392, 0.0048374163194260045, 0.0002843563571355815, 151757000000, 
-0.05822304299507305, -0.032829937458115355, -4.201728084784316e-06, 151762000000, 
-0.05923408616828499, 0.0052627682346417124, 1.935331621966496e-05, 151767000000, 
-0.04709883853968756, 0.0211038430138902, 0.00047568138628233076, 151772000000, 
-0.04773063976860052, 0.0017385406883934924, 4.6474661848784765e-05, 151777000000, 
-0.07563256780096984, 0.011318831629203349, -8.693847886851601e-05, 151782000000, 
-0.08973397317147036, 0.015113773553549257, -0.0002038997038126732, 151787000000, 
-0.06051635381018796, 0.022059924587457886, 0.000102259444195029, 151792000000, 
-0.0709948338719529, -0.010271967972224466, 6.180228259771136e-05, 151797000000, 
-0.03905194498637726, -0.009271439417291458, -0.00010239574876375256, 151802000000, 
-0.062335703476712176, -0.009085611468499243, -0.00041147050406332476, 151807000000, 
-0.06657596083484485, 0.004900488069542528, 0.0004161308043490501, 151812000000, 
-0.048163711269041294, -0.03902494072398634, 0.00033446521816629573, 151817000000, 
-0.04522812677709871, 0.0007336767374061048, -0.00014146971348665796, 151822000000, 
-0.060341882959180665, 0.043435561750327485, -8.784854531690126e-05, 151828000000, 
-0.07245498682061345, -0.002971524215368289, -3.49521232016426e-05, 151833000000, 
-0.052491227679498036, 0.0018805524290715753, -0.00042930083338730326, 151838000000, 
-0.04651999777773087, 0.001837608526675486, 8.097105104291577e-05, 151843000000, 
-0.05581029440019311, 0.018582782247351777, -0.00017228462171046822, 151848000000, 
-0.05380097692344013, -0.011879439765197947, -0.00022304707886124862, 151853000000, 
-0.025617269428036885, 0.024573555366919544, -0.0002179969530128145, 151858000000, 
-0.03403246328936178, -0.03666947548640043, -3.1287919983767785e-06, 151863000000, 
-0.053009043982208716, 0.010219672336946803, 2.4605169521070117e-05, 151868000000, 
-0.080743044715022, 0.0041293216670489135, -6.07685597870304e-05, 151874000000, 
-0.04892368497782309, 0.032097950747523564, 0.0001505302393637246, 151879000000, 
-0.017148478117239054, 0.0017523295734367746, -4.038637020944581e-05, 151884000000, 
-0.04185838526463826, -0.024775477259238392, -9.071339086268065e-05, 151889000000, 
-0.08324607998167628, -0.019050908912453302, 0.0001549801067667577, 151894000000, 
-0.07016369609179908, -0.004471235697280792, 5.405723319205821e-05, 151899000000, 
-0.05782050701964148, 0.032789679833690674, 3.207335065675954e-05, 151904000000, 
-0.07537385378586106, -0.008748953998177217, -0.0003258007444654058, 151909000000, 
-0.055732599481102124, -0.009393561398368843, -8.648840780719095e-05, 151914000000, 
-0.07611802907541383, 0.016818210854645185, -0.0003658247212340376, 151919000000, 
-0.051642167421740215, -0.005758723568873315, 0.00026033001730352496, 151924000000, 
-0.0652137532815919, -0.014926753403312181, -0.00020214279294105582, 151929000000, 
-0.06887831671458025, 0.014362332919893557, -0.00014204788441478272, 151934000000, 
-0.04707766898463232, 0.0007910563846684987, -2.7338562107436404e-05, 151939000000, 
-0.06665681079724448, -0.005743712318962137, -0.00023282290456310868, 151944000000, 
-0.041712132731501816, -0.01850903903212448, -0.0004518132331214082, 151949000000, 
-0.0585348033747242, 0.025505257497215626, 0.00014567367120025016, 151954000000, 
-0.07754329236899386, 0.012967606450084969, -7.535441157032326e-05, 151959000000, 
-0.06697737921059944, 0.01069355954575443, 1.710942424382794e-05, 151964000000, 
-0.06294223351617817, -0.0076045951520005385, -7.187041165397069e-05, 151969000000, 
-0.057366206798494225, 0.011472812610623355, -1.3986880238081197e-05, 151974000000, 
-0.04098138145451882, 0.006926375185888404, 7.484775188231269e-05, 151979000000, 
-0.0707111963642571, 0.01751318839159376, -8.033323614912453e-06, 151984000000, 
-0.07402129631591117, -0.02049406823072051, -9.3291613101031e-05, 151989000000, 
-0.05280395135926627, -0.02039549507719948, 0.0002662690143949945, 151994000000, 
-0.052795975385348484, 0.026442217558300035, 0.00023795400080698978, 151999000000, 
-0.0668581099938728, -0.008249006330591467, 0.0004152869665705231, 152004000000, 
-0.07738683705686755, -2.1052801898774082e-05, 6.25222916360042e-05, 152009000000, 
-0.05134952188403687, -0.0156162292673172, 5.698657136814639e-05, 152014000000, 
-0.011982478182409488, -0.0005631754792661851, -0.0002691501923027282, 152019000000, 
-0.08771225471964797, -0.007404326480468326, 0.00012427600306960597, 152024000000, 
-0.05928871326368226, -0.025273453900863475, -3.704904529444882e-05, 152029000000, 
-0.07104282106502471, -0.03165792704518685, -0.0006404523561463367, 152034000000, 
-0.012607844321471662, -0.02488855723687345, -0.000120710842800247, 152039000000, 
-0.06317311492567389, 0.0011964047297024732, 0.0002294928234122141, 152044000000, 
-0.04440838757717733, -0.010352937940630365, -0.0001717673398450879, 152049000000, 
-0.07421483581134357, 0.00035374024960041294, 0.0002920895374935938, 152054000000, 
-0.07779916471883415, -0.014603965893515015, -9.005766864023279e-05, 152059000000, 
-0.06379777026746428, -0.020682440097104213, -0.0004235887788927355, 152064000000, 
-0.05932661440594243, -0.001283621787880989, -6.82544605450554e-05, 152069000000, 
-0.05869546115487787, -0.024266085084711137, 0.0001292970326423043, 152074000000, 
-0.048866954642037386, -0.01789433171112031, 0.0001466197745620964, 152079000000, 
-0.04667495250727422, -0.010710238997269422, -3.4367773082886686e-05, 152084000000, 
-0.06392951841890962, -0.017706948946316182, 5.6118501422228595e-05, 152089000000, 
-0.06681863726670187, -0.008098414399047241, -0.00016358171697550167, 152094000000, 
-0.04469739761974645, 0.010905964469744598, -0.0002570793237323442, 152099000000, 
-0.0673412994889227, -0.001046759298010687, 1.2849839190912343e-05, 152104000000, 
-0.027478034271610618, -0.021550006966762156, 8.886242534524232e-05, 152109000000, 
-0.07954786910337792, 0.009149771370610366, 0.0001060718903684215, 152114000000, 
-0.07263987100189997, 0.023118576251521215, 8.531929336944625e-05, 152119000000, 
-0.046699504252709446, 0.018445294398073304, 4.052273994244545e-05, 152124000000, 
-0.06272773522604874, 0.0016087919417365098, 4.867871981702106e-05, 152130000000, 
-0.09362281493658445, 0.001459555651309505, -3.3242754197328033e-06, 152135000000, 
-0.081534916594501, -0.02034837650978478, 0.00020605676287014987, 152140000000, 
-0.04766908640134315, 0.03444608029502785, 0.00021123573248542308, 152145000000, 
-0.04397154965748951, 0.012519642698093691, -9.214067987510125e-05, 152150000000, 
-0.07528411342279659, 0.0167946575942839, -0.0002512963218502846, 152155000000, 
-0.044492673130327405, -0.0060518026918200485, 0.00021927486624528862, 152160000000, 
-0.03786404978626672, -0.035839725330972454, -4.3330315034338365e-05, 152165000000, 
-0.0494664178799185, 0.0063207008784446515, -0.0003219395485476455, 152170000000, 
-0.0851222160493198, 0.004465236298968344, -0.00019873069810051155, 152175000000, 
-0.03538510552270502, -0.01786702219500841, -0.00016041941042088323, 152180000000, 
-0.07864978474170162, -0.004056874751410605, 4.8612235234991284e-05, 152185000000, 
-0.0988726665293866, -0.010761951178976019, -0.00015065961495084413, 152190000000, 
-0.03005085772495805, 0.016409225427049846, -2.529832694231335e-05, 152195000000, 
-0.06339963878621563, -0.0049456394566138985, -0.0005158891441320453, 152200000000, 
-0.061150424226581276, 0.015778342178797967, 6.539881612250665e-05, 152205000000, 
-0.06576715251894669, 0.00352624472300288, -4.8684078410886986e-06, 152210000000, 
-0.05861786261773247, 0.007806490802617526, 6.190068014107474e-05, 152215000000, 
-0.06053448147856079, 0.006509451205150453, 5.673731255787456e-05, 152220000000, 
-0.03844077834770045, -0.010722070456345175, 7.48507534916737e-05, 152225000000, 
-0.04056589327262812, -0.012320674951841254, 0.00010528153093316023, 152230000000, 
-0.06727711061425833, -0.004400362328544056, -6.971653253944267e-07, 152235000000, 
-0.07698737073853261, -0.019585808332732817, 1.5116840345032039e-05, 152240000000, 
-0.05677413851354295, -0.01091112572548681, -0.0001559033040447647, 152245000000, 
-0.05312400700419055, 0.007093782463892087, -7.643611997429395e-05, 152250000000, 
-0.04804778013239132, 0.02479647341428864, -0.00015494567519551953, 152255000000, 
-0.05650839599477461, -0.0026433218858307682, -6.092064347697247e-05, 152260000000, 
-0.04456699960757796, -0.005552672034862751, 4.738338539933383e-05, 152265000000, 
-0.04288473220450972, -0.04645116423124166, -0.00014910606239315946, 152270000000, 
-0.049642935917090486, -8.235362969495716e-05, -2.9950203204353036e-05, 152275000000, 
-0.040758663634063164, -0.029673094570436428, 4.245916983904041e-05, 152280000000, 
-0.033069132876614116, 0.01350148289422556, -0.00028468892088607715, 152285000000, 
-0.05616242249626565, 0.0007381911621377139, 0.0003898823068135024, 152290000000, 
-0.02827515344433919, -0.006196427741451922, -0.00019583521627994724, 152295000000, 
-0.06317008171743115, 0.02065678681770066, -8.361492542326348e-05, 152300000000, 
-0.04799566036878809, -0.01016152923287073, 1.9465878041638984e-05, 152305000000, 
-0.057865335963092165, 0.002545721439302473, 0.00029615199020080506, 152310000000, 
-0.0372701447270859, 0.0276007292272926, 5.6497282460428377e-05, 152315000000, 
-0.04408910992856026, -0.0026051310108188568, -4.2472028616755994e-05, 152320000000, 
-0.08349883399566534, -0.029166492240567877, 0.00020778877042835028, 152325000000, 
-0.044167372522349334, 0.011313688466650294, -0.00029631143831855, 152330000000, 
-0.05631952243290837, -0.015812103224310686, 0.00016310978200293584, 152335000000, 
-0.05946317729676911, -0.006257658998028242, 9.764592588725928e-05, 152340000000, 
-0.05938937576453188, 0.015031089547805191, 9.888105970671783e-05, 152345000000, 
-0.08165523007342032, 0.028228152410358313, -0.0001435917912938611, 152350000000, 
-0.04007010153679487, 0.0023768245412363652, 8.866436787066162e-05, 152355000000, 
-0.0442913175030238, 0.029288747485537975, -0.00028676196875496623, 152360000000, 
-0.04973609880867412, -0.006657303090174862, 9.054455286254945e-05, 152365000000, 
-0.027635083079349247, -0.004350273384151955, -9.299808255492689e-05, 152370000000, 
-0.050430463870237925, -0.003198415545675162, 0.00019319530013012635, 152375000000, 
-0.07484648576839531, 0.012365682293158669, 1.9985633377739975e-05, 152380000000, 
-0.03030541119580737, -0.014202547661641798, 7.375274178623387e-06, 152385000000, 
-0.02876741051026719, 0.017124527514430617, 0.0002644297567733149, 152390000000, 
-0.04631483865647805, -0.002969851200217608, 0.00018610467736898548, 152395000000, 
-0.05679674009258191, 0.002720132259451454, -0.00013962156156993463, 152400000000, 
-0.043875370096751284, 0.01717222202466148, -0.0002535665120521639, 152405000000, 
-0.055030042286360256, 0.01448121348734001, 0.00031365441748745364, 152411000000, 
-0.0429283250546451, -0.012112153327112024, 8.706791625235849e-05, 152416000000, 
-0.05903023470305351, 0.010729875905800155, 0.00045604093053852536, 152421000000, 
-0.039835754069306444, -0.004854557153325905, 0.00026139338590757836, 152426000000, 
-0.07468697521542192, 0.03551078147378641, -0.00016540793424032517, 152431000000, 
-0.047036778442302085, -0.02953770854832105, -0.00013953220059355315, 152436000000, 
-0.03025422974074559, 0.005046017634605636, 6.745436654204557e-05, 152441000000, 
-0.06181936633827208, 0.02517341255069733, -0.0002802864460941215, 152446000000, 
-0.07623142449876064, -0.019087453520122224, -0.0003441890430994026, 152451000000, 
-0.056210686822540774, 0.011488317655455854, 0.00042620323589899, 152456000000, 
-0.05169524123523679, -0.019538302749861437, 3.290958835029382e-05, 152461000000, 
-0.08140585817382234, -0.017086250310450697, 0.00020534669125925803, 152466000000, 
-0.03210034077758009, 0.014643348499163595, 3.3137076667324776e-05, 152471000000, 
-0.0823312429208529, -0.002466963118291453, -2.5351042045909403e-05, 152476000000, 
-0.08068612741391125, 0.03217315839992826, 0.0001374589889494997, 152481000000, 
-0.04233401354609144, -0.019441146353517798, -0.00038531050098907703, 152486000000, 
-0.0601007802352632, -0.0024224194957019147, -0.00032622871753491654, 152491000000, 
-0.0602695103659012, 0.02404377058158506, -0.0002794401448707008, 152496000000, 
-0.06051736055817707, 0.014197503267020893, 0.00014622242519781361, 152501000000, 
-0.07159528271755942, -0.00017910110961745517, 0.0004468013809361041, 152506000000, 
-0.0545313084277034, 0.01525840584833698, 0.00014418133205152157, 152511000000, 
-0.03427847421737365, 0.030390831917390566, -0.00044884111960574833, 152516000000, 
-0.10469435154964482, 0.0037211475132340925, -0.00027458592157018484, 152521000000, 
-0.050894881402219566, 0.02671425327859273, -0.00031971288167189857, 152526000000, 
-0.06252668752638171, 0.022132445016910616, -0.00011518203215418521, 152531000000, 
-0.07289691686285334, 0.010142301673911244, 6.76548789258226e-05, 152536000000, 
-0.06038719516020498, 0.0016920507885757182, -0.00015876427621795155, 152541000000, 
-0.046609391446811074, -0.0013067061529215202, 0.0002944672643465488, 152546000000, 
-0.03440892904393055, -0.0019528419084137321, -0.0006340631225103828, 152551000000, 
-0.08579629713006237, -0.035716452663037974, 8.97369680199514e-05, 152557000000, 
-0.05545722684669744, -0.009417267774536624, -0.0002498871097662796, 152562000000, 
-0.09548321188738647, -0.00908574726372545, 0.0001884403119178338, 152567000000, 
-0.042742121221161396, -0.0036026005897434182, -0.0001139018108394181, 152572000000, 
-0.0695801784379272, 0.0058516701189064955, 0.00026951111801282635, 152577000000, 
-0.06498272980047419, 0.018139255410357213, 3.1004745831911384e-05, 152582000000, 
-0.06129527504261466, 0.019456383463355147, 0.00027787800698104954, 152587000000, 
-0.07020568163989822, 0.01378105377916907, 0.000308707531914762, 152592000000, 
-0.06564115037276534, 0.000772438192871094, 4.591118786435885e-05, 152597000000, 
-0.05396075436751055, -0.014796211815777094, -0.00010459294848591597, 152602000000, 
-0.07555028256611239, -0.0285666921539521, 6.601759593866077e-06, 152607000000, 
-0.042492457219439866, 0.008300952223291674, 5.613347608757604e-05, 152612000000, 
-0.06843570988404563, 0.0018971663016891828, -7.566562832814151e-05, 152617000000, 
-0.05998975285620548, 0.021548663523612198, -0.00053072995229536, 152622000000, 
-0.03629065510864863, -0.012366359885790323, -1.0726978913981787e-05, 152627000000, 
-0.07067935160231513, -0.028079115092296696, -0.00017613282894291769, 152632000000, 
-0.05942490385774066, -0.009288663758258365, -1.2109348612712437e-05, 152637000000, 
-0.06372606446328676, 0.027879126422199453, -0.00014229917846158386, 152642000000, 
-0.06951249099625938, -0.0005600111781474144, 2.737441408607816e-05, 152647000000, 
-0.06760982233233367, 0.00968718382736815, -0.000208456810126137, 152652000000, 
-0.07021685395412611, 0.04324559432800881, -0.00010269296640340928, 152657000000, 
-0.07778893836469833, 0.0031777025082014624, 0.00018664093603571908, 152662000000, 
-0.034374324778327275, -0.010195344297020622, -0.0001490171803154432, 152667000000, 
-0.0466455349482034, -0.018860502805806617, 7.032392099888371e-05, 152672000000, 
-0.04201223044525344, 0.014456214676578887, 2.4771588737499382e-05, 152677000000, 
-0.05373300701847884, -0.002837024092457935, 5.030284695540515e-05, 152682000000, 
-0.05793678031706252, -0.0313599170647065, 6.111950323567634e-05, 152687000000, 
-0.07536747119619933, -0.016248211111825814, 0.0001745266382929943, 152692000000, 
-0.036559893401511515, 0.027099778723503175, -0.0003444598403716125, 152697000000, 
-0.06641377529580533, 0.004988907516999949, 0.0002540595054748014, 152702000000, 
-0.06495804856167875, 0.0035099413945120185, -0.00015769635217729997, 152707000000, 
-0.04286955308612404, 0.0019445453407970449, -0.0003032652031710918, 152712000000, 
-0.03553858810824677, -0.009067077724036981, 0.0002605051743152415, 152717000000, 
-0.07016197144249652, 0.0010975566099559555, 0.00016621469402457496, 152722000000, 
-0.041011477029175056, 0.009582322673939058, 0.00016495070248932455, 152727000000, 
-0.039729215949280576, -0.03139647538270953, -6.607162986360665e-05, 152732000000, 
-0.05968098113650265, -0.009058130959120383, -7.238189015237061e-05, 152737000000, 
-0.03985609409297276, 0.00873714651087376, -0.00014906684966448785, 152742000000, 
-0.04301788461951343, -0.005140178495304122, -9.638727144158813e-05, 152747000000, 
-0.028656590508130828, 0.006669841623151376, -2.0295738427864006e-05, 152752000000, 
-0.07197520168205096, 0.016626397404158652, 6.119575601354585e-05, 152757000000, 
-0.07519726536712631, 0.0021908951421424146, -8.281535127406127e-05, 152762000000, 
-0.0485369890215817, -0.029296331577145014, 0.000329375721266216, 152767000000, 
-0.032394003797617955, -0.01355516515201813, 6.651440790298586e-05, 152772000000, 
-0.059330465006079115, 0.017228697270686315, -9.484745890743276e-05, 152777000000, 
-0.07013579354509858, -0.009914607169117932, -0.00018229940524875957, 152782000000, 
-0.08991891035641254, 0.012435221086303253, 0.00019399728173812679, 152787000000, 
-0.062757203565492, 0.01230128726930881, -0.00010105452112866431, 152792000000, 
-0.07784356691821044, -0.0042303373850053096, -7.496032071007547e-05, 152797000000, 
-0.057340373666692944, -0.006045399794645563, -0.0001367141506835127, 152802000000, 
-0.04189203255712101, 0.013485293445572184, 0.0001194166640184534, 152807000000, 
-0.035183409289835, 0.008835760021017667, 8.399332057302775e-05, 152812000000, 
-0.054557933919983634, 0.008311732980915188, 0.0001591896899894105, 152817000000, 
-0.031706978030667785, 0.00825048586778546, 0.0002416292473623923, 152822000000, 
-0.04438939116941175, -0.005928517681203877, -1.0487238633411591e-05, 152827000000, 
-0.0778390904726163, 0.013022690181093829, -0.0007099677685618148, 152832000000, 
-0.034096616893729795, 0.019316126186853556, -1.8631663252318954e-05, 152837000000, 
-0.051092810028529126, 0.013109961776133772, 9.561127510033095e-05, 152842000000, 
-0.06771975923337333, -0.01569739380737951, 4.147010642141346e-06, 152847000000, 
-0.031065998694516893, -0.005226923879543816, -0.0001539165463061484, 152852000000, 
-0.044733003576334314, 0.02195238505089257, 3.860299744465866e-05, 152857000000, 
-0.05738409886747628, 0.004950239670607145, 0.0002362334679888726, 152862000000, 
-0.05116197306565527, -0.01999427093187211, -0.00010189339818083765, 152867000000, 
-0.06188572819960599, 0.003159921289561058, -0.0003041344300430846, 152872000000, 
-0.06479149287456988, 0.012808534529804422, -0.000252562640580934, 152877000000, 
-0.09073108844092334, -0.024060348572038016, 0.00022862234598348938, 152882000000, 
-0.07769610608421916, 0.008991368052996931, -1.7104546856367197e-05, 152887000000, 
-0.03822102587572745, 0.014550171741718975, 2.6436028176986832e-05, 152892000000, 
-0.040331369490084173, 0.019831863010192814, -0.00030285831201039764, 152897000000, 
-0.05251201448680346, -0.00037668646111430895, 0.0001625116833604089, 152902000000, 
-0.04752673694823272, 0.007603261121313278, 0.0001330631228974257, 152907000000, 
-0.03340912582679623, -0.032014707860923024, -0.0002273492529031689, 152912000000, 
-0.035501455692538805, 0.002250210606845012, -5.4407718501036956e-05, 152917000000, 
-0.026244367051721392, -0.00393389236180277, 0.00025940972818580516, 152922000000, 
-0.05809826477944863, -0.012151013012143972, -0.0003589380881785328, 152927000000, 
-0.040265128960623855, -0.021631900739272812, -0.0003680409658379244, 152932000000, 
-0.021694031492977446, -0.017678069173485814, 0.00025724951899961274, 152937000000, 
-0.07814731146703796, -0.014617010556901908, -7.968990956388655e-05, 152942000000, 
-0.05780899097428519, -0.022648330057200475, 9.314997299725885e-05, 152947000000, 
-0.05662785692860804, 0.005672975850812447, 0.00011552004530333113, 152952000000, 
-0.072337057694973, 0.01682225944991194, -0.0005182723669363396, 152957000000, 
-0.06584257428344524, -0.013407488518934517, -0.000327686009060084, 152962000000, 
-0.05632575513437655, 0.0047095326096315135, 2.7670123413538047e-05, 152967000000, 
-0.05337731923647052, 0.006659349179182799, 3.006179784939128e-05, 152972000000, 
-0.0678221275886417, 0.003410844688639383, 0.0003354164530191932, 152977000000, 
-0.07093779791694009, 0.013607968475885248, -0.00010336773667015714, 152982000000, 
-0.043600587299713056, -0.0015475856621944759, 6.5765325950952245e-06, 152987000000, 
-0.05457554279927513, 0.005038860252851117, -0.00027205162084558305, 152992000000, 
-0.039088754185790754, -0.0329793378734834, -0.0004472399881616217, 152997000000, 
-0.053325075655901076, 0.032274032886559514, -0.00011999832170616037, 153002000000, 
-0.05521195810261326, -0.022384909931996343, 0.00019815216987875586, 153007000000, 
-0.06368458725856638, 0.006803793339686031, -3.3563548405299996e-05, 153012000000, 
-0.05491317411779864, 0.014863193775718368, -0.00010457240342521594, 153017000000, 
-0.051727937484452015, -0.01145424543163263, 0.00014359347431347548, 153022000000, 
-0.050733645570704054, 0.028107157771505336, -0.00012490520479205213, 153027000000, 
-0.050169464823522525, 0.0068941982417695565, -8.170188556165387e-05, 153032000000, 
-0.04350519267337202, 0.0336260567653367, 0.0003744257615861957, 153037000000, 
-0.058579903503452255, -0.03269677045479304, -0.0003004978435251834, 153042000000, 
-0.06178547909720884, 0.02564848576377313, -9.025720451612911e-06, 153047000000, 
-0.07281178251031255, 0.02240562231699195, -6.4174347031183e-05, 153052000000, 
-0.047600355189812274, -0.0016721399820164024, 3.253362193967973e-06, 153057000000, 
-0.06150735009153538, 0.004624021261942885, 0.0005244554671982156, 153062000000, 
-0.06270429916188588, 0.015437709300471425, 3.2928904677281934e-05, 153067000000, 
-0.010111026349727, -0.005423162981548676, 4.657497992463634e-05, 153072000000, 
-0.02545008780994736, 0.00048207209676678003, 0.0003492693639878072, 153077000000, 
-0.06488322730552867, 0.02163913472673302, -0.0001309375228874651, 153082000000, 
-0.06443975703577884, 0.023678632197415273, 3.763433081257532e-05, 153087000000, 
-0.06740053130105908, 0.017987765466448934, 5.583555722556709e-05, 153092000000, 
-0.018113967769656, 0.020814367662734305, -4.335991428430984e-06, 153097000000, 
-0.055865389713226646, 0.023033325078322016, 3.533487311853377e-05, 153102000000, 
-0.039491789562203436, 0.010628511095205346, 0.0004882769169808859, 153107000000, 
-0.011714330142557856, -0.0013708936224409076, -0.0003455157107641496, 153112000000, 
-0.03400805055884136, 0.0018922492745339298, 0.0003402783953223091, 153117000000, 
-0.0726790089444862, -0.03819259565617399, 0.0002878581451435742, 153122000000, 
-0.0421444367937439, 0.0004952143840442737, -0.0003326265794052359, 153127000000, 
-0.07298899202745275, -0.04170103092618493, -0.00015646557661690922, 153132000000, 
-0.033384905911392704, 0.005343511726770896, -3.001336612873764e-05, 153137000000, 
-0.04691103670583317, 0.0167943989017843, -0.00010104051001898186, 153142000000, 
-0.057585330243330034, -0.012717333584124612, -0.00017975877410777302, 153147000000, 
-0.031478399264500634, 0.010612086801174226, -0.00013825413566576276, 153152000000, 
-0.04710097158083561, 0.03405604073361284, 0.0001937658595698276, 153157000000, 
-0.057050130471176304, 0.032419273681605375, 0.00025346763078289315, 153162000000, 
-0.020701798385015582, 0.036516043192298266, 0.00015527175500117222, 153167000000, 
-0.04916637402792497, 0.014085548875261552, 0.00020067223334253666, 153172000000, 
-0.046518456808342316, -0.02325813114544152, -0.00021357161852615325, 153177000000, 
-0.0871564355728688, -0.026799827133835944, -0.00030817084145453417, 153182000000, 
-0.03731295745674867, 0.040768920898184666, 8.71545692221742e-05, 153187000000, 
-0.06498802477850082, 0.014328507149979183, 4.0392938671419464e-05, 153192000000, 
-0.021264994291173595, 0.012854240485133115, -0.00010266289682543924, 153197000000, 
-0.06266209457899002, -0.005979339662223844, -0.00018212994191272325, 153202000000, 
-0.029622833220642197, 0.0338712860601739, 3.351023249815463e-05, 153207000000, 
