acc_x, acc_y, angular_z, stamp, 
0.0029555559158325195, 0.01135164499282837, 0.00021829821189002423, 1727901188670974642, 
0.22897595167160034, 0.020612716674804688, 0.0025605582229120557, 1727901188703098411, 
0.5231872797012329, 0.4961445927619934, 0.08312379784035635, 1727901188733179428, 
0.9427319765090942, 0.16648036241531372, 0.2915358238566165, 1727901188760895613, 
0.5578197836875916, 0.15471428632736206, 0.33925978913889987, 1727901188790894027, 
0.2804499864578247, 0.04019981622695923, 0.4032687827750551, 1727901188820978442, 
0.17513799667358398, 0.18608248233795166, 0.546383191722889, 1727901188850963114, 
0.4835253953933716, 0.5185894966125488, 0.6482356716755778, 1727901188881060628, 
0.3715994358062744, 0.1804795265197754, 0.7298292732962499, 1727901188911083112, 
0.679339587688446, -0.00333249568939209, 0.7728865132099552, 1727901188942611957, 
0.2727205753326416, 0.21838122606277466, 0.8496161297829338, 1727901188974617872, 
0.5659471750259399, 0.666317343711853, 1.1057718811605377, 1727901189001316965, 
0.5518653988838196, 0.1743021011352539, 1.0693523985768907, 1727901189031315178, 
0.19694077968597412, 0.17975032329559326, 1.2155006088489, 1727901189060386765, 
0.6894516348838806, 0.361738383769989, 1.2454234409765885, 1727901189090386142, 
-0.04852491617202759, 0.4706738591194153, 1.2427313660009303, 1727901189121496516, 
0.10219967365264893, 0.6380506753921509, 1.3780555312521199, 1727901189151524871, 
0.47613346576690674, 0.15451091527938843, 1.4326887807453272, 1727901189182385210, 
-0.07630354166030884, 0.4265521764755249, 1.354112094976904, 1727901189215046663, 
-0.18293702602386475, 0.6043596863746643, 1.652315850193603, 1727901189241718665, 
-0.7083358764648438, 0.027485013008117676, 1.5138377060447095, 1727901189271681941, 
-0.02274918556213379, 0.20890313386917114, 1.5181798183662583, 1727901189301758912, 
0.028673410415649414, 0.5070934295654297, 1.4587452453613379, 1727901189331807024, 
-0.06229710578918457, 0.20086240768432617, 1.4313002517841844, 1727901189361855609, 
-0.274736225605011, 0.0038017630577087402, 1.4453625024660781, 1727901189391856281, 
-0.20256978273391724, 0.5770773887634277, 1.465979678426806, 1727901189421654046, 
-0.23161447048187256, 0.007920801639556885, 1.361989370263628, 1727901189453575561, 
0.2946659326553345, 0.5917041897773743, 1.5159506382476418, 1727901189482104736, 
-0.005141735076904297, 0.004537820816040039, 1.3979472523174863, 1727901189512136660, 
-0.011020123958587646, 0.6362995505332947, 1.3937977673280173, 1727901189542178229, 
-0.6120120286941528, -0.24554443359375, 1.4267901569207986, 1727901189572173840, 
-0.04443711042404175, 0.5775153040885925, 1.3970420871312175, 1727901189602476705, 
-0.48503220081329346, 0.07778728008270264, 1.4114417159396826, 1727901189632319814, 
0.3773725628852844, -0.02231729030609131, 1.374213403594986, 1727901189663082984, 
-0.4254438877105713, 0.9464489221572876, 1.3371581439122164, 1727901189694624847, 
-0.32796674966812134, -0.1268068552017212, 1.5187437442915188, 1727901189722540400, 
0.32740646600723267, 0.39390629529953003, 1.418322122369163, 1727901189752550112, 
-0.4067050814628601, 0.07489979267120361, 1.3660605650614348, 1727901189782622450, 
0.20082807540893555, 0.36114758253097534, 1.3673516121399434, 1727901189812863165, 
-0.3981032371520996, 0.5097758173942566, 1.3608915811010587, 1727901189842685589, 
0.1705493927001953, 0.18869930505752563, 1.3388755395791478, 1727901189872693377, 
-0.3264696002006531, 0.7015690207481384, 1.327621554217788, 1727901189902821103, 
-0.16100382804870605, 0.044844210147857666, 1.2371314631058532, 1727901189934606916, 
0.15703368186950684, 0.5204034447669983, 1.3970216388145655, 1727901189962896503, 
0.28297150135040283, 0.18920719623565674, 1.3130550656519684, 1727901189992900628, 
0.4166848063468933, 0.8394307494163513, 1.2958591913530084, 1727901190022941057, 
-0.104411780834198, -0.2072104811668396, 1.1921616506430586, 1727901190044982292, 
-0.3413073420524597, 1.0008280277252197, 1.4153395279331946, 1727901190073007387, 
0.30519717931747437, 0.040119826793670654, 1.3158588597237402, 1727901190103093485, 
0.02120751142501831, 0.8229923248291016, 1.29778752786254, 1727901190133144446, 
-0.2853381633758545, -0.07940471172332764, 1.2731950183618452, 1727901190163258673, 
-0.1247907280921936, 0.19258445501327515, 1.291739726242664, 1727901190193215866, 
0.4124479293823242, 0.7480088472366333, 1.2978407068332407, 1727901190223298051, 
0.23652011156082153, 0.21382248401641846, 1.1948070063511722, 1727901190255016573, 
-0.2485714554786682, 0.6646707653999329, 1.2249317741969756, 1727901190285767367, 
0.07596957683563232, 0.15445315837860107, 1.3898457808524132, 1727901190313425037, 
-0.20661884546279907, 0.6231216192245483, 1.2840569280519105, 1727901190343483681, 
-0.3417726755142212, 0.04746526479721069, 1.2610050748665764, 1727901190373472032, 
0.10027796030044556, 0.5747296214103699, 1.2492293260369192, 1727901190403567845, 
-0.3289371132850647, -0.013587892055511475, 1.2392070417293022, 1727901190433736720, 
0.5085960030555725, 0.4545772075653076, 1.2416322661424508, 1727901190463718914, 
-0.06358957290649414, 0.28719228506088257, 1.1443923963978975, 1727901190495283651, 
0.56900554895401, 0.018087387084960938, 1.1489228580113988, 1727901190527113767, 
-0.35496997833251953, 0.5753887891769409, 1.3627573779157276, 1727901190553959932, 
0.12908309698104858, -0.1585901975631714, 1.2373821962885039, 1727901190583889605, 
-0.4937145709991455, 0.9181739091873169, 1.242919401291684, 1727901190613892545, 
0.08486688137054443, -0.12131190299987793, 1.2551331208738365, 1727901190642975286, 
-0.1425687074661255, 0.6661036610603333, 1.2019072434322995, 1727901190673029395, 
-0.23844587802886963, 0.039827585220336914, 1.153990682512611, 1727901190704062237, 
-0.16006070375442505, 0.34445780515670776, 1.1513130441384551, 1727901190734666721, 
-0.506104052066803, 0.2011238932609558, 1.1016307562854268, 1727901190766922658, 
0.20611190795898438, 0.4605317711830139, 1.316243316262923, 1727901190794231126, 
0.06458097696304321, 0.1253422498703003, 1.202249698760911, 1727901190824249515, 
-0.113772451877594, 0.44325417280197144, 1.2093327736151789, 1727901190854289241, 
0.09697616100311279, 0.6178430318832397, 1.2371318385356527, 1727901190883360901, 
-0.14268261194229126, -0.1051485538482666, 1.115681954087647, 1727901190914394567, 
-0.15491938591003418, 0.627250611782074, 1.1480929662649422, 1727901190944468464, 
0.05330604314804077, 0.26685768365859985, 1.1274904393487903, 1727901190974921928, 
-0.011961936950683594, 0.8460893034934998, 1.0424896784667446, 1727901191007479022, 
-0.1324533224105835, -0.05505359172821045, 1.2491775508786254, 1727901191034681147, 
0.25465768575668335, 0.5100088715553284, 1.1453873524593647, 1727901191064663648, 
-0.29363954067230225, 0.4623240828514099, 1.145450250488213, 1727901191094719854, 
0.3044084906578064, 0.339174747467041, 1.1614063937320123, 1727901191124768623, 
-0.025806903839111328, 0.7773913741111755, 1.1590651299643497, 1727901191154806641, 
0.17529892921447754, 0.06238865852355957, 1.1363970005927233, 1727901191184908951, 
-0.5042623281478882, 0.11339014768600464, 1.112521254464745, 1727901191215197812, 
0.12513166666030884, 0.40504300594329834, 1.0565841050060174, 1727901191246972721, 
0.3574102520942688, 0.45925456285476685, 1.1037544494229445, 1727901191277127028, 
0.30385154485702515, 0.2384326457977295, 1.2157205931410011, 1727901191304110981, 
-0.3403952717781067, 0.36669808626174927, 1.0592516533502916, 1727901191335083631, 
-0.25655078887939453, 0.5073984861373901, 1.1305204758474223, 1727901191365142136, 
0.23618096113204956, 0.1869109869003296, 1.1167957232956731, 1727901191395207462, 
-0.03186386823654175, 0.5808215141296387, 1.0972816980292042, 1727901191425269654, 
0.17917084693908691, 0.19781160354614258, 1.1321943923962048, 1727901191454357863, 
-0.07184392213821411, 1.0608606338500977, 0.984558594080696, 1727901191486941108, 
-0.347270131111145, -0.27964746952056885, 0.9802460513743755, 1727901191519163055, 
-0.1613374948501587, 0.6988959908485413, 1.2107503920378397, 1727901191545514247, 
0.05613553524017334, 0.29108893871307373, 1.080676456753287, 1727901191575512574, 
-0.08095318078994751, 0.039305031299591064, 1.0840481495909613, 1727901191605515482, 
-0.13134509325027466, 0.36177653074264526, 1.0839005405768072, 1727901191635582495, 
-0.27481961250305176, -0.04118102788925171, 1.0778411739552423, 1727901191665606106, 
-0.08463400602340698, 0.4710806608200073, 1.0772229386236676, 1727901191695702221, 
0.14913421869277954, 0.003110945224761963, 1.0292873455053435, 1727901191726992337, 
-0.1299523115158081, 0.6307304501533508, 1.0014913475064515, 1727901191759052652, 
0.19579458236694336, 0.21001136302947998, 1.1720344497582496, 1727901191785921364, 
0.07067275047302246, 0.40457338094711304, 1.0384386451344634, 1727901191815873169, 
-0.0831943154335022, 0.19076240062713623, 1.0322523732592248, 1727901191845942039, 
0.2558286786079407, 0.554603099822998, 1.0246316813103364, 1727901191875993055, 
-0.43832844495773315, 0.4456526041030884, 1.0500267246194175, 1727901191905071452, 
-0.0944439172744751, 0.22602587938308716, 0.973999716619671, 1727901191936150336, 
-0.3035408854484558, 0.31795161962509155, 0.9706756277398139, 1727901191967480271, 
0.05529367923736572, 0.14475476741790771, 0.9930941072414201, 1727901191998922506, 
0.07864212989807129, 0.6107666492462158, 1.1196313913148044, 1727901192026309917, 
0.06513112783432007, -0.08699923753738403, 0.9898726068623687, 1727901192056323715, 
-0.24117690324783325, 0.6031190156936646, 1.0191994608310795, 1727901192086336606, 
-0.30030345916748047, -0.11238831281661987, 1.0559175767230677, 1727901192115432380, 
0.10494470596313477, 0.2933259606361389, 0.9840827813578714, 1727901192146647592, 
0.15729999542236328, 0.2729153633117676, 1.024982909516991, 1727901192176555946, 
-0.150199294090271, 0.2998926043510437, 0.9744379243581193, 1727901192207683922, 
-0.415047824382782, 0.3797444701194763, 0.9732570706211938, 1727901192238862538, 
0.03472632169723511, 0.36749112606048584, 1.0934532335319573, 1727901192266695241, 
0.5570968389511108, 0.37077438831329346, 1.0066822855549402, 1727901192296836717, 
0.08170443773269653, 0.2077878713607788, 0.981327950829023, 1727901192326750208, 
-0.0988994836807251, 0.6484172344207764, 0.9628314280665077, 1727901192356809228, 
-0.1585434079170227, 0.06210809946060181, 0.9647267109233839, 1727901192386881451, 
-0.058120787143707275, 0.6690316200256348, 0.9725319617364128, 1727901192417191717, 
-0.23266690969467163, 0.05537235736846924, 0.9822453182608302, 1727901192447100631, 
0.44650763273239136, 0.2446281909942627, 0.9189894750490248, 1727901192479256864, 
-0.35262006521224976, 0.4128751754760742, 0.9737258802989297, 1727901192509520709, 
-0.001147150993347168, 0.07133752107620239, 1.0832214451490936, 1727901192536147401, 
-0.5395316481590271, 0.2854408621788025, 0.9206553817634443, 1727901192567148698, 
0.04177170991897583, 0.3659406304359436, 0.9397685716929738, 1727901192597234309, 
0.025906622409820557, 0.6058886051177979, 0.9513721684619487, 1727901192627481910, 
-0.1752842664718628, 0.18317008018493652, 1.0010081702874412, 1727901192656357207, 
0.19479680061340332, 0.39148932695388794, 0.9462431847841147, 1727901192687339082, 
-0.2382858395576477, 0.2865152955055237, 0.929697867247075, 1727901192718926062, 
0.4169158339500427, 0.16564714908599854, 0.9229470364329998, 1727901192750505487, 
-0.11776000261306763, 0.20658427476882935, 1.0322332179048006, 1727901192777615292, 
-0.21248990297317505, 0.14702266454696655, 0.9269366319975056, 1727901192807533094, 
0.13979768753051758, 0.6092466115951538, 0.9281339930530365, 1727901192837591977, 
-0.09605675935745239, 0.05436515808105469, 0.9354634963073045, 1727901192867675547, 
0.338567852973938, 0.6279242634773254, 0.9337764619192688, 1727901192897703540, 
-0.06885343790054321, 0.12245398759841919, 0.925422279702359, 1727901192927769234, 
0.8139032125473022, 0.5980169773101807, 0.8751927534229549, 1727901192959103535, 
-0.14649063348770142, 0.15818583965301514, 0.8398217507171435, 1727901192991695501, 
-0.4877197742462158, 0.5119109749794006, 1.04709167384125, 1727901193017954867, 
-0.155207097530365, 0.7841529846191406, 0.9264194226641992, 1727901193047893785, 
-0.06384825706481934, -0.21105051040649414, 0.9175220892070103, 1727901193078074526, 
-0.24019885063171387, 0.6916702389717102, 0.9072978135223918, 1727901193107996425, 
-0.2174166440963745, 0.22578823566436768, 0.9065834597860113, 1727901193138132301, 
-0.3028303384780884, 0.05027616024017334, 0.9492955849938405, 1727901193167107438, 
-0.10047602653503418, 0.2893819808959961, 0.8481465581487742, 1727901193199244286, 
0.21060991287231445, 0.7275044322013855, 0.8821330003495301, 1727901193230794678, 
-0.049729108810424805, 0.10366398096084595, 1.054352848821342, 1727901193257368114, 
-0.19406062364578247, 0.6199644207954407, 0.8812668651777137, 1727901193288459130, 
0.14038550853729248, 0.4157419204711914, 0.8966680501809249, 1727901193318431735, 
0.25738805532455444, 0.11419808864593506, 0.884782328240456, 1727901193348490062, 
-0.23662394285202026, 0.2639594078063965, 0.882533451585316, 1727901193378515342, 
0.4157752990722656, 0.17683881521224976, 0.8665059963960446, 1727901193408546793, 
-0.2191717028617859, 0.4888561964035034, 0.8150430655919095, 1727901193439604810, 
-0.2948310375213623, -0.29510974884033203, 0.8455182521910155, 1727901193470777157, 
0.37679916620254517, 0.8002479672431946, 0.9553512032767725, 1727901193498730289, 
0.097109854221344, -0.07631635665893555, 0.8543252346174475, 1727901193529394878, 
-0.14245390892028809, 0.5193561911582947, 0.8630213906170505, 1727901193559398585, 
0.4202086925506592, 0.24112236499786377, 0.859298009784629, 1727901193589393521, 
0.021380841732025146, 0.22068697214126587, 0.8505413574084314, 1727901193619455914, 
0.1826932430267334, 0.7015101909637451, 0.8685687459746585, 1727901193649418540, 
0.01603710651397705, 0.1773400902748108, 0.871600993725981, 1727901193679499650, 
-0.34018832445144653, 0.26517635583877563, 0.844173146668074, 1727901193710829515, 
-0.13298046588897705, 0.1297021508216858, 0.8463876824170894, 1727901193741627663, 
-0.30519694089889526, 0.38735467195510864, 0.9435852415488671, 1727901193769530429, 
-0.22355502843856812, 0.009886205196380615, 0.8763018433254094, 1727901193799507598, 
0.24525290727615356, 0.42144936323165894, 0.853636208522538, 1727901193829515594, 
-0.11742854118347168, 0.5146814584732056, 0.8254887491810472, 1727901193859598461, 
-0.1095353364944458, 0.5399030447006226, 0.8274993941607905, 1727901193889621212, 
-0.25651007890701294, 0.05917137861251831, 0.8213968774582665, 1727901193919698805, 
0.09187215566635132, 0.2563377618789673, 0.7830030732312062, 1727901193951297031, 
0.16022050380706787, 0.371412992477417, 0.7978852086870603, 1727901193983043076, 
-0.31093698740005493, 0.1451624035835266, 0.9075127690767709, 1727901194020025998, 
0.5068706274032593, 0.4426735043525696, 0.8643033986788758, 1727901194049824240, 
0.006217062473297119, 0.11227822303771973, 0.8553382630968805, 1727901194079867151, 
-0.5711910724639893, -0.010579943656921387, 0.8243470221473026, 1727901194111156790, 
0.6120516061782837, 0.4551032781600952, 0.7783503695203229, 1727901194143475531, 
-0.048461735248565674, -0.028692245483398438, 0.9068986281464829, 1727901194169925356, 
-0.1814953088760376, 0.6661788821220398, 0.8081592395463173, 1727901194199836841, 
0.24937450885772705, 0.13914144039154053, 0.8240912328644702, 1727901194229893735, 
0.388949990272522, 0.4919423460960388, 0.8441621453234581, 1727901194259949683, 
-0.2026768922805786, 0.3067222237586975, 0.8283680538566953, 1727901194289965276, 
0.118752121925354, 0.25640571117401123, 0.8209472968261883, 1727901194320056779, 
-0.36709362268447876, 0.4714334011077881, 0.7822138212425055, 1727901194350872996, 
-0.022910118103027344, -0.09175282716751099, 0.7434867836013624, 1727901194382885185, 
-0.5924050807952881, 0.36112451553344727, 0.904014872255238, 1727901194409207544, 
0.1660252809524536, 0.08533704280853271, 0.7787442245796902, 1727901194440209635, 
0.13177788257598877, 0.7745072245597839, 0.7863669969263972, 1727901194470244066, 
-0.1404384970664978, 0.0499916672706604, 0.7768424888148829, 1727901194500335318, 
0.10949182510375977, 0.6613621115684509, 0.8227501545133528, 1727901194529385973, 
-0.15569615364074707, 0.2047179937362671, 0.7829564340590599, 1727901194560467295, 
-0.34543919563293457, 0.20421791076660156, 0.7982820063254348, 1727901194591498041, 
-0.12911760807037354, 0.3831251263618469, 0.7895792579831089, 1727901194622913417, 
-0.5654491782188416, 0.10568028688430786, 0.8724310999407914, 1727901194650624575, 
-0.2914217710494995, 0.18251103162765503, 0.7979579573262051, 1727901194680649987, 
0.2156682014465332, 0.27330589294433594, 0.7696292107466769, 1727901194710700634, 
-0.2952336072921753, 0.4846511483192444, 0.754500424309438, 1727901194740754620, 
-0.23107385635375977, 0.28507769107818604, 0.7772434021870834, 1727901194770783358, 
0.980849027633667, 0.5816332697868347, 0.7980911139857585, 1727901194800847789, 
-0.3154539465904236, 0.004967391490936279, 0.7703220064614563, 1727901194830941943, 
-0.0773918628692627, 0.40770500898361206, 0.7165631747817215, 1727901194863143838, 
-0.48614609241485596, 0.1889086365699768, 0.7667501670275761, 1727901194892875241, 
0.043208539485931396, -0.06569647789001465, 0.8348582088256356, 1727901194921036771, 
-0.026879310607910156, 0.29758143424987793, 0.7985720801906301, 1727901194951058009, 
-0.11635178327560425, 0.07520401477813721, 0.7537009289049552, 1727901194981129828, 
0.2714042663574219, 0.6802377104759216, 0.7449910806729544, 1727901195011152837, 
0.31137192249298096, 0.04457080364227295, 0.7573126108982066, 1727901195041268907, 
0.33423590660095215, 0.3999377489089966, 0.7843726023186149, 1727901195071287762, 
-0.1721068024635315, 0.06714582443237305, 0.7289594458387113, 1727901195103309875, 
0.2670682668685913, 0.19218075275421143, 0.7684599916201679, 1727901195133944372, 
-0.2406681776046753, 0.1440703272819519, 0.8426506588461259, 1727901195161446100, 
-0.10289698839187622, 0.18231672048568726, 0.7438268593833225, 1727901195191508931, 
0.17799091339111328, -0.00662916898727417, 0.7298096249508016, 1727901195221582048, 
0.20792865753173828, 0.41329896450042725, 0.7381058003085283, 1727901195251580983, 
0.15268194675445557, 0.46851933002471924, 0.7464163023064568, 1727901195281675568, 
0.40552186965942383, -0.21934181451797485, 0.7445934658078825, 1727901195311734069, 
0.11672806739807129, 0.5119287967681885, 0.7094833526460816, 1727901195343230074, 
-0.1659035086631775, 0.07819819450378418, 0.6954788080700292, 1727901195374917009, 
0.4381398558616638, 0.42086654901504517, 0.8070303581435505, 1727901195402212119, 
-0.16153758764266968, 0.4708607792854309, 0.7726629387517793, 1727901195431573419, 
0.5227195024490356, 0.06666499376296997, 0.7557994567696121, 1727901195461942135, 
-0.32442158460617065, 0.5879274010658264, 0.740958488835275, 1727901195492000469, 
-0.03775590658187866, -0.15645980834960938, 0.7155691745176335, 1727901195522009480, 
-0.1743801236152649, 0.7282708287239075, 0.7288988299212595, 1727901195552091342, 
-0.5032206773757935, -0.3466861844062805, 0.7229579878590437, 1727901195583194583, 
0.19668138027191162, 0.3077235221862793, 0.698212050814889, 1727901195615670065, 
0.26987719535827637, 0.30603742599487305, 0.8246125079264979, 1727901195642279377, 
0.3343850374221802, 0.7772833704948425, 0.7358183858746846, 1727901195672295794, 
0.11087477207183838, -0.1324622631072998, 0.7439165664382952, 1727901195701380970, 
-0.17101949453353882, 0.2753744125366211, 0.6963921762187156, 1727901195732659322, 
-0.45275866985321045, 0.2058679461479187, 0.7207892495236602, 1727901195762688261, 
0.0895121693611145, -0.11038130521774292, 0.7100258266021713, 1727901195792527189, 
-0.42024457454681396, 0.5557253956794739, 0.681770330542959, 1727901195823234542, 
0.6298115849494934, -0.19026565551757812, 0.6808112711931638, 1727901195855008734, 
-0.05785965919494629, 0.8744539022445679, 0.7704279129924755, 1727901195882718740, 
-0.22114968299865723, -0.1313610076904297, 0.7244960497563628, 1727901195912689648, 
0.28750747442245483, 0.7654101848602295, 0.7419201752661579, 1727901195942676134, 
-0.05059993267059326, -0.07068485021591187, 0.7249872700778102, 1727901195972757143, 
0.19905507564544678, 0.2557644844055176, 0.7096773401892283, 1727901196002812096, 
-0.3612086772918701, 0.16946923732757568, 0.6952934531352873, 1727901196032895829, 
0.10213726758956909, -0.0006617903709411621, 0.6845655650022952, 1727901196064024565, 
0.30392563343048096, 0.7794544100761414, 0.7193069056308824, 1727901196094963718, 
0.01167440414428711, -0.17906922101974487, 0.7143288170295438, 1727901196125191563, 
0.5212448239326477, 0.6574509143829346, 0.7605708513763488, 1727901196153104047, 
0.2516268491744995, -0.04064863920211792, 0.7086055261932592, 1727901196183322963, 
-0.4140546917915344, 0.326593816280365, 0.7137526816122197, 1727901196213166920, 
-0.4026377201080322, 0.06741070747375488, 0.7019357799973915, 1727901196243220562, 
0.11244922876358032, 0.41015076637268066, 0.7114187746583903, 1727901196272268909, 
0.830822229385376, 0.22654366493225098, 0.6641894871538898, 1727901196303327553, 
0.6423147916793823, 0.1426655650138855, 0.635973175468299, 1727901196334948647, 
0.10960787534713745, 0.5195035934448242, 0.6406628647704563, 1727901196366270217, 
-0.021978139877319336, 0.2576069235801697, 0.756006693295311, 1727901196393576294, 
0.10895043611526489, 0.6405485272407532, 0.7190618941182035, 1727901196423513173, 
-0.4837028384208679, -0.16920560598373413, 0.6972972997240529, 1727901196453586832, 
0.34097713232040405, 0.5932666063308716, 0.7085614465719151, 1727901196483658992, 
-0.24013638496398926, -0.09083151817321777, 0.6826019105809267, 1727901196513672362, 
-0.22874057292938232, 0.2713114619255066, 0.6652464365886521, 1727901196543758130, 
-0.03705191612243652, 0.19185024499893188, 0.6219377393905529, 1727901196575988010, 
0.22645342350006104, 0.18352150917053223, 0.6490302403963836, 1727901196607116549, 
-0.059958040714263916, 0.47086620330810547, 0.7607131600905004, 1727901196633910602, 
0.26922929286956787, 0.15660786628723145, 0.6679440958348437, 1727901196664023980, 
0.09198790788650513, 0.4734070897102356, 0.6813515711247792, 1727901196693983099, 
-0.48479825258255005, -0.1213606595993042, 0.6647285882754395, 1727901196724663740, 
-0.13015925884246826, 0.5346643924713135, 0.6779823957246285, 1727901196754714536, 
-0.11215752363204956, 0.12865984439849854, 0.6762757946781514, 1727901196784916801, 
0.347953736782074, 0.10671937465667725, 0.6611625126866449, 1727901196814934328, 
-0.3239542245864868, 0.18988901376724243, 0.598493404505686, 1727901196847074271, 
0.08165538311004639, 0.12962579727172852, 0.6856042583662497, 1727901196874630120, 
0.16563498973846436, 0.5154410600662231, 0.6479883815358353, 1727901196904640102, 
0.48560965061187744, -0.0005007386207580566, 0.6635290780005693, 1727901196934702172, 
0.3654111623764038, 0.5161670446395874, 0.6826789439971709, 1727901196964659180, 
-0.33783501386642456, 0.06255853176116943, 0.6651641197085428, 1727901196994690053, 
-0.16300112009048462, 0.3153280019760132, 0.6522177218145159, 1727901197024781016, 
-0.22817546129226685, 0.17616510391235352, 0.6653556041503124, 1727901197054955938, 
-0.1230093240737915, 0.16686499118804932, 0.6168919691400608, 1727901197087490489, 
0.041577279567718506, 0.137459397315979, 0.7210835483142489, 1727901197114920108, 
0.0901029109954834, 0.32888662815093994, 0.6599384751712014, 1727901197144838646, 
0.006076991558074951, 0.5415952205657959, 0.6393032623480833, 1727901197174924413, 
0.22977298498153687, -0.1118307113647461, 0.6720002754839464, 1727901197204906169, 
-0.012089729309082031, 0.4639509916305542, 0.6877016836207156, 1727901197234909173, 
-0.21904349327087402, -0.4476549029350281, 0.6335606967613524, 1727901197264885138, 
0.028703749179840088, 0.5275412797927856, 0.6299303165620825, 1727901197294922759, 
0.24779272079467773, -0.07484900951385498, 0.5836559081650383, 1727901197327138340, 
0.20176827907562256, 0.694739043712616, 0.6729246978399546, 1727901197355151016, 
-0.3854411244392395, -0.2011556625366211, 0.6381858070264836, 1727901197385080128, 
0.06819146871566772, 0.501071572303772, 0.6264301985101568, 1727901197415162859, 
-0.2376912236213684, 0.0358852744102478, 0.6298972289944199, 1727901197445203217, 
-0.05725044012069702, -0.047543227672576904, 0.6447260196643986, 1727901197475231283, 
-0.38284391164779663, 0.7701753973960876, 0.645429908574411, 1727901197505589197, 
0.10333830118179321, 0.12530601024627686, 0.6750589663899265, 1727901197535397536, 
0.055511534214019775, 0.5541751384735107, 0.6312483710584444, 1727901197567162680, 
0.3421773910522461, -0.19475704431533813, 0.6168020252157035, 1727901197598267556, 
-0.31351202726364136, 0.37449169158935547, 0.6828128427465392, 1727901197625602587, 
-0.2911521792411804, -0.08484017848968506, 0.6235142974897024, 1727901197655538895, 
-0.38706719875335693, 0.20687878131866455, 0.6282343524387222, 1727901197685607845, 
0.608718991279602, 0.4252329468727112, 0.6296794307188898, 1727901197715643250, 
0.1676655411720276, 0.1806052327156067, 0.6107711263453933, 1727901197745709243, 
-0.16985827684402466, 0.521974503993988, 0.6330381146319395, 1727901197775784808, 
0.0035138726234436035, -0.3234403133392334, 0.5974831175382428, 1727901197807493252, 
-0.38567519187927246, 0.6041271686553955, 0.5781252920792587, 1727901197839151937, 
-0.23932421207427979, -0.1996595859527588, 0.6912157084650801, 1727901197865961329, 
-0.21227842569351196, 0.849944531917572, 0.618222693007717, 1727901197895992219, 
0.11481869220733643, -0.18074685335159302, 0.6088746002275891, 1727901197926008020, 
0.40719324350357056, 0.6945942044258118, 0.6219763206759475, 1727901197956042900, 
-0.23283225297927856, -0.20331019163131714, 0.611035441885777, 1727901197986124493, 
-0.11418646574020386, 0.15361279249191284, 0.6238715888031422, 1727901198016174997, 
-0.34039145708084106, 0.2870991826057434, 0.610910324900911, 1727901198047631499, 
0.321930468082428, 0.25540757179260254, 0.591905040270247, 1727901198079225383, 
-0.46072161197662354, 0.13222700357437134, 0.7097508652223288, 1727901198104453627, 
0.4480385184288025, 0.4735267758369446, 0.5685038038889071, 1727901198136448624, 
-0.2800152897834778, 0.2939263582229614, 0.5829841281888803, 1727901198166739832, 
0.33150988817214966, 0.2655818462371826, 0.5771430787131796, 1727901198196595960, 
0.22011762857437134, 0.17404067516326904, 0.5877042347201106, 1727901198226571983, 
-0.12935131788253784, 0.3635409474372864, 0.5981848956742313, 1727901198256543871, 
0.12869858741760254, 0.019121766090393066, 0.5992155228935837, 1727901198287264174, 
-0.43221551179885864, 0.5837766528129578, 0.5743045099732164, 1727901198319102160, 
0.11064231395721436, -0.24979835748672485, 0.659882295722131, 1727901198346815154, 
0.0667915940284729, 0.7243403792381287, 0.627863879642422, 1727901198376764927, 
0.22706615924835205, -0.3060044050216675, 0.6072967176249446, 1727901198406781967, 
0.3635198473930359, 0.6468554139137268, 0.6005751443521885, 1727901198436859240, 
-0.18261903524398804, -0.14172732830047607, 0.5775540166758101, 1727901198466913445, 
-0.11249703168869019, 0.08122169971466064, 0.5919507029805628, 1727901198497000495, 
-0.09530907869338989, 0.523488461971283, 0.5912501888560442, 1727901198527339700, 
0.20011883974075317, 0.1467096209526062, 0.5585847040836402, 1727901198559971559, 
-0.2448943853378296, 0.4160570502281189, 0.6107467269122645, 1727901198590328510, 
0.36992305517196655, -0.24039876461029053, 0.6931957273268277, 1727901198617170354, 
-0.22503548860549927, 0.3986520767211914, 0.6118920608389704, 1727901198647184194, 
-0.3280411958694458, -0.125918447971344, 0.5982985606240131, 1727901198677215741, 
0.12910008430480957, 0.36160266399383545, 0.5721177290385201, 1727901198707257720, 
-0.46834373474121094, 0.06335914134979248, 0.5532098132711385, 1727901198737312064, 
0.683063268661499, 0.30749136209487915, 0.6154407512815274, 1727901198766375243, 
-0.21146529912948608, 0.2671157121658325, 0.5466369603380505, 1727901198799083319, 
0.40981513261795044, 0.1589641571044922, 0.5825934357533804, 1727901198829350870, 
-0.2809649109840393, 0.054503023624420166, 0.6088120701228541, 1727901198857695594, 
-0.2073459029197693, -0.2895885109901428, 0.5721510729905145, 1727901198887604306, 
-0.345473051071167, 0.47390466928482056, 0.587785269908413, 1727901198917660984, 
0.07067102193832397, 0.3056514859199524, 0.5766212564066083, 1727901198947734591, 
0.019681572914123535, 0.5484949350357056, 0.5464018206573202, 1727901198977752330, 
-0.36944669485092163, -0.11608105897903442, 0.5549904475848244, 1727901199007824636, 
-0.02604842185974121, 0.23831069469451904, 0.5767286654501296, 1727901199039491156, 
-0.3662853240966797, 0.030639469623565674, 0.5832710908234535, 1727901199071519651, 
0.10799872875213623, 0.17281872034072876, 0.6781233675699688, 1727901199097992019, 
-0.226965069770813, 0.16744929552078247, 0.5718889766253334, 1727901199127967726, 
-0.4054306745529175, 0.34799885749816895, 0.5655462235515012, 1727901199157991833, 
0.0909501314163208, 0.5882616639137268, 0.5805075918889647, 1727901199188101520, 
-0.19366300106048584, -0.10737013816833496, 0.5651548545107249, 1727901199218104107, 
0.3779953718185425, 0.5104156732559204, 0.5469968979065949, 1727901199248188503, 
-0.13537907600402832, -0.08473038673400879, 0.5124059961462132, 1727901199279132613, 
0.06154102087020874, 0.5688202977180481, 0.5242902339717759, 1727901199311115302, 
-0.06273847818374634, -0.20275700092315674, 0.6642851017077573, 1727901199338406175, 
0.003130197525024414, 0.5895103216171265, 0.5774610418395527, 1727901199368410926, 
-0.2719871401786804, 0.2454613447189331, 0.5898921737307308, 1727901199397426425, 
-0.41852056980133057, 0.4176206588745117, 0.5559286277646692, 1727901199428574460, 
0.4813253879547119, 0.41324132680892944, 0.5895418370604939, 1727901199458565718, 
-0.1041032075881958, 0.13751840591430664, 0.5515289948883413, 1727901199488665339, 
0.9130026698112488, 0.4765530228614807, 0.5175702211521406, 1727901199519603215, 
-0.2256367802619934, -0.041371285915374756, 0.489554145585534, 1727901199551255975, 
0.33329927921295166, 0.3748565912246704, 0.5877732239924686, 1727901199578840506, 
-0.002677440643310547, 0.013895571231842041, 0.5663401893755545, 1727901199608817177, 
-0.22940778732299805, 0.1893770694732666, 0.5761889327191025, 1727901199638829166, 
0.15664386749267578, 0.1964970827102661, 0.5572187663705012, 1727901199668948414, 
-0.24793416261672974, -0.158835768699646, 0.5272238468490755, 1727901199698889084, 
-0.20380491018295288, 0.5965650677680969, 0.5163482855590077, 1727901199729641398, 
0.1348605751991272, 0.29052436351776123, 0.5518952880019976, 1727901199759714653, 
0.4545731544494629, 0.6088123321533203, 0.5364501083838633, 1727901199791132052, 
-0.4268988370895386, -0.365925133228302, 0.5483452126479996, 1727901199821212191, 
0.16101717948913574, 0.41686761379241943, 0.5706095903668378, 1727901199849789055, 
-0.5572929978370667, -0.2853854298591614, 0.5366826385121094, 1727901199879764122, 
0.059880197048187256, 0.15491324663162231, 0.570837385931961, 1727901199909762260, 
-0.2553008198738098, 0.4706643223762512, 0.5909136455887399, 1727901199939804034, 
-0.49341320991516113, 0.3848176598548889, 0.5662587899513807, 1727901199969803313, 
0.5041398406028748, 0.21713703870773315, 0.5351648077545551, 1727901199999837340, 
-0.10514545440673828, 0.12197035551071167, 0.46987415650025666, 1727901200031706561, 
0.13944649696350098, 0.4646996259689331, 0.4995524324591235, 1727901200062023494, 
0.024464666843414307, 0.2819613814353943, 0.5753026016243064, 1727901200089967746, 
0.12120711803436279, 0.04222625494003296, 0.5705110751515606, 1727901200119827758, 
-0.16744482517242432, 0.16347265243530273, 0.5731884477605165, 1727901200149943834, 
0.21478396654129028, 0.13075047731399536, 0.5442269426681138, 1727901200179906157, 
-0.600899338722229, 0.21659958362579346, 0.5158883330696379, 1727901200209919871, 
-0.3229268789291382, 0.272491455078125, 0.5115123654060717, 1727901200240069923, 
0.12303727865219116, 0.4398830533027649, 0.4936527044021074, 1727901200271784659, 
0.10195159912109375, 0.017601728439331055, 0.523293205113056, 1727901200302420807, 
0.3607654571533203, 0.7168211340904236, 0.5864393045477838, 1727901200330163984, 
0.22340697050094604, -0.47274911403656006, 0.5234614513947502, 1727901200360051958, 
0.38266777992248535, 0.6207018494606018, 0.5205564120138769, 1727901200390071091, 
-0.025606393814086914, -0.44541823863983154, 0.5092011121370721, 1727901200420134910, 
-0.08048856258392334, 0.16881728172302246, 0.5255957928434767, 1727901200450189653, 
-0.17905932664871216, 0.5892974734306335, 0.5547221097989081, 1727901200480230484, 
-0.30414921045303345, 0.062122881412506104, 0.536507390517117, 1727901200511163084, 
-0.4292944669723511, 0.26930081844329834, 0.5079875204926434, 1727901200543538082, 
0.0867612361907959, 0.020244479179382324, 0.5782903798492103, 1727901200579360929, 
-0.35950011014938354, 0.4615383744239807, 0.49100926557540026, 1727901200610430142, 
-0.5905089378356934, 0.2928141951560974, 0.5226170937132056, 1727901200639520058, 
0.6305698156356812, 0.08222579956054688, 0.49558319597792816, 1727901200671571198, 
-0.08938443660736084, 0.41182780265808105, 0.5169004711383993, 1727901200703133603, 
0.13060235977172852, 0.2849237322807312, 0.5679335127399775, 1727901200730743807, 
-0.2098502516746521, 0.6190710663795471, 0.5008364736234013, 1727901200760741674, 
0.32024967670440674, -0.6169092059135437, 0.5034039757766153, 1727901200790748149, 
0.002995908260345459, 0.6285497546195984, 0.5097904018491397, 1727901200820817999, 
-0.04106712341308594, -0.3862847089767456, 0.48873192445602104, 1727901200850867279, 
0.06201261281967163, 1.0562942028045654, 0.5040766284531292, 1727901200881005279, 
-0.19488495588302612, -0.12386840581893921, 0.5094015650674361, 1727901200911170368, 
-0.20989638566970825, -0.16254568099975586, 0.48920016079444284, 1727901200943472329, 
-0.1390153169631958, 0.6358233690261841, 0.5335945378239886, 1727901200973428724, 
-0.08784693479537964, -0.18308520317077637, 0.5951309579043937, 1727901201001090420, 
-0.23892903327941895, 0.5094456672668457, 0.5484338188546962, 1727901201031136688, 
0.4747765064239502, -0.05954313278198242, 0.5112086533941731, 1727901201061283237, 
-0.1363697052001953, 0.41654491424560547, 0.4869197768272689, 1727901201091205831, 
0.2626880407333374, -0.05633985996246338, 0.4928305270323292, 1727901201121329869, 
0.0854291319847107, 0.5445438623428345, 0.5008378269679992, 1727901201150355666, 
-0.563886821269989, 0.30767834186553955, 0.428817519159322, 1727901201183625658, 
-0.2793615460395813, -0.09499382972717285, 0.5281704367802214, 1727901201213424609, 
-0.01813673973083496, 0.07591867446899414, 0.5954725269843795, 1727901201240522892, 
0.24483627080917358, 0.01718306541442871, 0.5123447483807115, 1727901201270516627, 
0.22107744216918945, 0.8529363870620728, 0.4943682660033438, 1727901201301642150, 
0.09449195861816406, -0.39202338457107544, 0.5138467222441143, 1727901201331664348, 
-0.46239161491394043, 0.9060052633285522, 0.522215232140498, 1727901201361734928, 
0.18808627128601074, -0.24657058715820312, 0.48424257629831075, 1727901201391744290, 
0.05866795778274536, 0.6209540963172913, 0.44412262452490947, 1727901201423212970, 
0.258769690990448, -0.2208542823791504, 0.46491539076186195, 1727901201455219450, 
-0.06372469663619995, 0.2263319492340088, 0.570205165524762, 1727901201481966908, 
-0.2548087239265442, 0.21763980388641357, 0.5179684954373062, 1727901201511922563, 
0.18805092573165894, -0.122691810131073, 0.5066455552884471, 1727901201541999877, 
-0.32244062423706055, 0.2955368757247925, 0.48128124983276876, 1727901201572000401, 
-0.19193768501281738, -0.13276463747024536, 0.49683919679389865, 1727901201602108303, 
0.1805814504623413, 0.649375319480896, 0.5212249793987276, 1727901201632160828, 
-0.2888472080230713, -0.10353010892868042, 0.4828025122528301, 1727901201663430710, 
0.17117840051651, 0.481029748916626, 0.44969581260098485, 1727901201695664538, 
0.15879756212234497, -0.0753597617149353, 0.5341006201031998, 1727901201722393981, 
0.08400410413742065, 0.5942596197128296, 0.49570036815252494, 1727901201751352008, 
-0.05283045768737793, 0.09809452295303345, 0.4734198405433604, 1727901201782418488, 
0.04078865051269531, 0.16369467973709106, 0.47902765564500593, 1727901201812442118, 
-0.45884382724761963, 0.2132887840270996, 0.46560690808323774, 1727901201842507585, 
0.295617938041687, -0.1160888671875, 0.4763379311692579, 1727901201872530590, 
0.17240530252456665, 0.5381818413734436, 0.4797315689325141, 1727901201903240784, 
0.07527512311935425, -0.00985795259475708, 0.4498202782774442, 1727901201935518286, 
-0.058112144470214844, 0.45350295305252075, 0.546458279449842, 1727901201962726303, 
0.24484074115753174, -0.3531615734100342, 0.5199735912926727, 1727901201992704058, 
-0.02150171995162964, 0.5840249061584473, 0.5205880251861977, 1727901202022792820, 
-0.07639825344085693, 0.021667420864105225, 0.502980467808321, 1727901202052797201, 
0.10231679677963257, 0.4808034300804138, 0.4958176021549401, 1727901202082911858, 
0.4836511015892029, 0.20155662298202515, 0.48518134142154123, 1727901202112947715, 
-0.12326735258102417, 0.033217668533325195, 0.43019495740221536, 1727901202143690685, 
-0.38343316316604614, 0.40450066328048706, 0.41891750795719096, 1727901202175544532, 
0.3057568073272705, -0.1831921935081482, 0.49060152065796253, 1727901202203186256, 
0.21776443719863892, 0.7737488746643066, 0.45722352693052765, 1727901202233174359, 
0.16391688585281372, -0.5171728730201721, 0.4808406279830649, 1727901202263407949, 
0.18703269958496094, 0.6617235541343689, 0.51083836387371, 1727901202293300236, 
0.15238314867019653, 0.2883894443511963, 0.48971999121179144, 1727901202323478184, 
0.352444052696228, 0.04345589876174927, 0.490682142576693, 1727901202353453779, 
-0.08547669649124146, 0.6564856171607971, 0.49246839573840906, 1727901202383392776, 
-0.13085007667541504, -0.41206008195877075, 0.4642422769190534, 1727901202415183853, 
-0.19430899620056152, 0.3213352560997009, 0.48483150204522596, 1727901202445520508, 
0.14712929725646973, -0.18291562795639038, 0.5111343701233344, 1727901202473514224, 
0.05335581302642822, 0.6909220814704895, 0.5007287584891739, 1727901202502535141, 
-0.12629395723342896, -0.08264130353927612, 0.4324564030923399, 1727901202533692835, 
-0.30809497833251953, 0.2681962251663208, 0.4688762499162326, 1727901202563681481, 
-0.21682709455490112, 0.3554990887641907, 0.4946790267733312, 1727901202593746078, 
0.2815539836883545, 0.027844369411468506, 0.4924609141860719, 1727901202623953286, 
-0.2179442048072815, 0.5318637490272522, 0.4537480955909723, 1727901202655701392, 
-0.04533743858337402, -0.07576227188110352, 0.45203870347678043, 1727901202685427337, 
-0.19562852382659912, 0.8154589533805847, 0.4565590084766837, 1727901202713943178, 
-0.10132783651351929, -0.6752294301986694, 0.4463547306928785, 1727901202744004527, 
0.018238484859466553, 0.7149013876914978, 0.48471421549337323, 1727901202774009646, 
0.30616533756256104, -0.23857122659683228, 0.48315580862503626, 1727901202804144891, 
0.11777055263519287, 0.474693238735199, 0.48407935057701135, 1727901202834106570, 
-0.20572668313980103, -0.3710009455680847, 0.4648505142073456, 1727901202864211296, 
-0.060170888900756836, 0.05394148826599121, 0.46079578036734253, 1727901202894344338, 
-0.1650850772857666, 0.5832487940788269, 0.41438929072396385, 1727901202927397936, 
0.045270681381225586, 0.05823129415512085, 0.5022674351100623, 1727901202954301718, 
-0.3887326717376709, 0.3634001612663269, 0.477089272311711, 1727901202983387943, 
0.1913895606994629, 0.16138291358947754, 0.47037433930386197, 1727901203014442357, 
0.07562613487243652, 0.6127525568008423, 0.4826681543147169, 1727901203044489149, 
0.2985836863517761, 0.12488454580307007, 0.47419575076412424, 1727901203074521798, 
0.18924671411514282, 0.48898690938949585, 0.4831029803766266, 1727901203103630706, 
-0.2982882261276245, 0.0427359938621521, 0.43799243693671036, 1727901203135284451, 
-0.5017920732498169, 0.42685502767562866, 0.4207460355648902, 1727901203167887401, 
0.4019407033920288, -0.03934121131896973, 0.4973032986894383, 1727901203194761531, 
0.3013094663619995, 0.14880317449569702, 0.41473065848149704, 1727901203224793808, 
0.05455976724624634, 0.22311007976531982, 0.4264822398622926, 1727901203254800144, 
0.2680632472038269, -0.2311103343963623, 0.45893007461110263, 1727901203284954478, 
-0.4519140124320984, 0.40955281257629395, 0.48001707158804463, 1727901203314903767, 
-0.2291530966758728, -0.18094301223754883, 0.4675004733324285, 1727901203344979304, 
-0.14438128471374512, 0.3293781876564026, 0.4805358001137976, 1727901203374382919, 
-0.2823662757873535, 0.040083229541778564, 0.4152078540488826, 1727901203408067358, 
0.02997124195098877, 0.13475865125656128, 0.5186278716505123, 1727901203435145475, 
-0.21588826179504395, 0.3679819703102112, 0.4564168939132627, 1727901203465184236, 
-0.023147404193878174, 0.10250347852706909, 0.4286378864455907, 1727901203495196569, 
0.1736355423927307, 0.22365713119506836, 0.41395495462725385, 1727901203525245632, 
-0.48159587383270264, 0.2510051727294922, 0.4257610707419789, 1727901203555321656, 
0.17223334312438965, 0.6760798692703247, 0.45766486941072876, 1727901203584388967, 
-0.04290658235549927, -0.14970743656158447, 0.4334984029702889, 1727901203615758519, 
-0.1910800337791443, 0.46324044466018677, 0.432217435430088, 1727901203647496921, 
0.39266037940979004, 0.10607093572616577, 0.46885547707556713, 1727901203677563091, 
-0.11060065031051636, -0.17817026376724243, 0.5014416464632832, 1727901203714618178, 
0.03844481706619263, 0.5089956521987915, 0.4491815989083651, 1727901203744652034, 
-0.12463152408599854, -0.043840229511260986, 0.4169496133747125, 1727901203775670673, 
0.11510318517684937, 0.6300516724586487, 0.4012400130782443, 1727901203808017055, 
-0.2700594663619995, -0.06997120380401611, 0.43713223124413225, 1727901203838018223, 
-0.3395017981529236, -0.10567426681518555, 0.471013050549667, 1727901203875827642, 
0.4315791726112366, 0.21084940433502197, 0.4518397285337091, 1727901203906187389, 
-0.2475528120994568, -0.12978720664978027, 0.43341876292408543, 1727901203935970827, 
-0.22472822666168213, 0.5244244337081909, 0.40031143364099836, 1727901203967820805, 
0.20293253660202026, -0.19995343685150146, 0.4132671780911115, 1727901203999329808, 
-0.4292900562286377, 0.4065701365470886, 0.47783176993816895, 1727901204026172414, 
0.13245153427124023, -0.25716596841812134, 0.4232649299093425, 1727901204056137887, 
0.10303282737731934, 0.6817601323127747, 0.4330457808806279, 1727901204086183403, 
-0.1477859616279602, 0.279524564743042, 0.42155570269377696, 1727901204116228890, 
0.21997374296188354, 0.21809017658233643, 0.42911109622037197, 1727901204146321829, 
-0.009515821933746338, 0.5161014199256897, 0.45942354862487333, 1727901204175421877, 
-0.20112007856369019, -0.21556639671325684, 0.41584400490759266, 1727901204207508849, 
0.28278225660324097, 0.6349859237670898, 0.43420394047685446, 1727901204238385492, 
0.23316419124603271, -0.2501017451286316, 0.4699387939167353, 1727901204266555262, 
0.21173804998397827, 0.6792272329330444, 0.44466622231452585, 1727901204296601556, 
0.34945768117904663, -0.2349821925163269, 0.4249918711053651, 1727901204326568143, 
-0.20627808570861816, -0.034780263900756836, 0.44226466592776165, 1727901204356636194, 
0.007494807243347168, 0.3383476138114929, 0.4781152369327257, 1727901204385685664, 
-0.12245440483093262, -0.2336474061012268, 0.4461652454711411, 1727901204416756498, 
-0.04035365581512451, 0.2532431483268738, 0.44386276146562564, 1727901204448443495, 
0.10898828506469727, -0.12420791387557983, 0.4643644807228868, 1727901204478348292, 
-0.42310094833374023, 0.1874828338623047, 0.46974695156239626, 1727901204506968983, 
0.07437628507614136, -0.11490100622177124, 0.4362368566253062, 1727901204536971507, 
0.33286988735198975, 0.5139171481132507, 0.3965792169505548, 1727901204567023252, 
-0.38756829500198364, -0.19026720523834229, 0.374596450950516, 1727901204597091321, 
-0.4630005359649658, 0.4615779519081116, 0.39141927589547276, 1727901204627097473, 
0.2982015609741211, 0.130712628364563, 0.42428755948156155, 1727901204657138755, 
0.12535160779953003, 0.16592562198638916, 0.41858521629344825, 1727901204687607682, 
-0.11544644832611084, 0.7106704711914062, 0.4145693145474919, 1727901204719705763, 
-0.1373826265335083, 0.0523756742477417, 0.45533689550461676, 1727901204747294606, 
0.0009101033210754395, 0.6068037152290344, 0.4401620190423881, 1727901204776343902, 
-0.04971635341644287, -0.12552976608276367, 0.4308400919591942, 1727901204806364183, 
0.329317569732666, 0.6693808436393738, 0.4244287542610921, 1727901204837400154, 
-0.06741875410079956, 0.167791485786438, 0.43131389485711297, 1727901204867450765, 
0.7384271025657654, 0.11929172277450562, 0.4529942429984119, 1727901204897553436, 
-0.1967584490776062, 0.17018204927444458, 0.43528923335289466, 1727901204927699140, 
-0.10885739326477051, 0.42330247163772583, 0.3973870909565508, 1727901204959859475, 
0.07687664031982422, -0.14800268411636353, 0.41197975541897885, 1727901204990552904, 
-0.3449125289916992, 0.15487223863601685, 0.4596548165199074, 1727901205017909562, 
0.29834431409835815, 0.29668962955474854, 0.42313497842103664, 1727901205047872698, 
0.11352580785751343, 0.0003858208656311035, 0.403774860660382, 1727901205078003212, 
0.24826496839523315, 0.6146630644798279, 0.4001826141689441, 1727901205108006637, 
-0.3680974245071411, -0.16961967945098877, 0.3869140822228971, 1727901205137948047, 
0.4232608675956726, 0.18325507640838623, 0.40325716725004906, 1727901205167999305, 
-0.15616238117218018, 0.15025633573532104, 0.4033600729952426, 1727901205199692611, 
0.4063335657119751, 0.36033546924591064, 0.4300615342550592, 1727901205230374749, 
0.09241771697998047, 0.12218832969665527, 0.4653902299614696, 1727901205258191695, 
-0.23695576190948486, -0.017872333526611328, 0.41514203463015154, 1727901205288159175, 
0.13615405559539795, 0.36051541566848755, 0.42244355506840464, 1727901205318201313, 
-0.24616795778274536, -0.3334473967552185, 0.4089191691666696, 1727901205348281622, 
0.09537577629089355, 0.24693262577056885, 0.3938786960990923, 1727901205378329437, 
-0.4019174575805664, -0.10410648584365845, 0.3862448189645705, 1727901205408401189, 
0.286993145942688, 0.35581058263778687, 0.3996899708520498, 1727901205439883259, 
-0.15623795986175537, -0.25320643186569214, 0.39914893457675354, 1727901205471874129, 
-0.06585174798965454, 0.13184499740600586, 0.4871796081203332, 1727901205498588553, 
0.0815841555595398, 0.49139416217803955, 0.43731487639261624, 1727901205528579557, 
-0.041239023208618164, -0.14697545766830444, 0.4028342340930027, 1727901205558627948, 
-0.13347458839416504, 0.34341371059417725, 0.41288541224595476, 1727901205588697548, 
