acc_x, acc_y, angular_z, stamp, 
0.18979614973068237, 0.04250609874725342, 0.001636724097180734, 1727899885631780150, 
2.639228582382202, -0.05975764989852905, 0.01944010830409434, 1727899885661832547, 
0.5248962640762329, 0.20588946342468262, -0.0225330775104062, 1727899885693191985, 
1.2919625043869019, -0.18633359670639038, -0.006570441115604378, 1727899885725059140, 
0.19101446866989136, -0.11656427383422852, 0.008569844606145894, 1727899885751940635, 
0.3168290853500366, 0.24099946022033691, 0.020214135358867555, 1727899885781939748, 
-1.566874384880066, 0.3249604105949402, -0.02012262642313896, 1727899885811986173, 
0.14172667264938354, -0.5562003254890442, -0.03316083525797104, 1727899885842031470, 
-0.4120587110519409, -0.0254666805267334, 0.013696334052873177, 1727899885872176776, 
0.3838738203048706, 0.40530794858932495, 0.041637810087353684, 1727899885902204710, 
0.02184462547302246, 0.21265381574630737, -0.010410131341838026, 1727899885933533674, 
0.21072500944137573, -0.555718183517456, -0.011709739169798958, 1727899885965069351, 
0.107413649559021, -0.12900465726852417, 0.0458342720597694, 1727899885992344440, 
0.039898037910461426, 0.6585571765899658, 0.018922981785275288, 1727899886022468187, 
-0.03147172927856445, -0.034418344497680664, -0.04583694846199789, 1727899886052408074, 
-0.191766619682312, -0.599396288394928, -0.02408479782281723, 1727899886082472060, 
0.17136448621749878, 0.14364755153656006, 0.04652223132705275, 1727899886112516415, 
0.20395398139953613, 0.5118282437324524, 0.046007420053302245, 1727899886142604568, 
0.17865216732025146, -0.37623488903045654, -0.010682472370308624, 1727899886173194804, 
-0.09082388877868652, -0.442327082157135, -0.01796378079692782, 1727899886204994798, 
-0.13264942169189453, 0.24625247716903687, 0.004276418263039915, 1727899886232751670, 
-0.09833461046218872, 0.47521156072616577, -0.007522876767334027, 1727899886262749127, 
-0.15419554710388184, -0.5129724740982056, -0.011573726837484366, 1727899886292760451, 
0.17484384775161743, -0.3611757159233093, 0.016086799358738347, 1727899886322888887, 
0.12483936548233032, 0.4642108678817749, 0.004119459295868346, 1727899886352949534, 
-0.01571100950241089, 0.3681017756462097, -0.025854084513432896, 1727899886383008699, 
-0.09890282154083252, -0.5410721302032471, -0.0029940396667327432, 1727899886413693363, 
0.06544727087020874, 0.028072059154510498, 0.021093590373031688, 1727899886445754784, 
-0.1524677276611328, 0.6093701124191284, 0.008243124804166795, 1727899886474372400, 
-0.04765194654464722, -0.24068158864974976, -0.008109286472039151, 1727899886503687932, 
-0.2548772096633911, -0.5528719425201416, 0.00739499579598833, 1727899886533646216, 
0.23093724250793457, 0.14579713344573975, 0.002349441886219293, 1727899886563699182, 
0.258622407913208, 0.6195497512817383, -0.03176409961865958, 1727899886593706079, 
-0.030358612537384033, -0.4152127504348755, -0.024845799114922615, 1727899886623754517, 
-0.18704825639724731, -0.49559879302978516, 0.009118796515097316, 1727899886653789220, 
-0.13246381282806396, 0.3984675407409668, 0.012629508641386658, 1727899886685111762, 
0.0519024133682251, 0.45026445388793945, -0.020009991309385293, 1727899886716266421, 
0.006157040596008301, -0.39558106660842896, -0.023424499143803436, 1727899886743790146, 
0.09121781587600708, -0.2653962969779968, -0.0036282161701801895, 1727899886773818841, 
0.016860544681549072, 0.3878852128982544, 8.111874957843227e-05, 1727899886803814900, 
0.132762610912323, 0.23627376556396484, -0.011956690021257836, 1727899886833850211, 
-0.11240345239639282, -0.3708612322807312, -0.009287162620479936, 1727899886863869702, 
0.05990111827850342, -0.18662232160568237, 0.003415288324975991, 1727899886893900189, 
0.004788517951965332, 0.42704230546951294, -0.005922979803531954, 1727899886925062309, 
0.10375601053237915, -0.003074169158935547, -0.011860424379197708, 1727899886957537066, 
0.07456099987030029, -0.41779494285583496, 0.008673968030667018, 1727899886984085323, 
0.02512425184249878, 0.11238634586334229, 0.012283462371044534, 1727899887014020399, 
-0.17742598056793213, 0.26295316219329834, -0.00911321383742641, 1727899887044086847, 
-0.05260312557220459, -0.17004531621932983, -0.021117805693269487, 1727899887074105890, 
0.0340152382850647, -0.13789689540863037, -0.004162770414765351, 1727899887104111217, 
0.0743178129196167, 0.21834373474121094, 0.0021689661404628822, 1727899887134209868, 
-0.06435853242874146, 0.09513968229293823, -0.003872393482648284, 1727899887165102429, 
-0.10618585348129272, -0.2325916290283203, 0.015019526534230488, 1727899887196370272, 
0.129328191280365, -0.005958259105682373, 0.04583805419804657, 1727899887224339100, 
-0.03154176473617554, 0.38132429122924805, 0.004139732009524461, 1727899887254332233, 
0.011122286319732666, -0.1696804165840149, -0.029782234541622453, 1727899887284400719, 
-0.08601188659667969, -0.2339940071105957, -0.018911992056647016, 1727899887313463045, 
0.05926328897476196, 0.2663060426712036, 0.018420663939173968, 1727899887344684253, 
0.0630648136138916, 0.2866058349609375, 0.009666212615881502, 1727899887374560936, 
-0.11382800340652466, -0.4475920796394348, -0.008996079038790914, 1727899887405530365, 
-0.18743634223937988, -0.19141602516174316, 0.005954741902743037, 1727899887437132339, 
0.0007401704788208008, 0.39457058906555176, 0.027775563058703132, 1727899887464728544, 
0.08833444118499756, 0.2653467059135437, -0.014769766917872759, 1727899887494742797, 
-0.0030835866928100586, -0.5801940560340881, -0.029097125587138523, 1727899887524767422, 
-0.11537301540374756, -0.18888288736343384, 0.016642089888094357, 1727899887554861575, 
0.029931247234344482, 0.5247352123260498, 0.052179390632774526, 1727899887584932392, 
-0.09640425443649292, 0.22851437330245972, 0.00684168967291909, 1727899887614983243, 
0.16412395238876343, -0.5389452576637268, -0.03956518478692524, 1727899887645429178, 
-0.18890976905822754, 0.08206218481063843, 0.001435284850382558, 1727899887677426301, 
0.04511058330535889, 0.4692065119743347, 0.020365076509842928, 1727899887705175708, 
-0.32305908203125, -0.14007216691970825, -0.012466901072583459, 1727899887735161160, 
0.23884928226470947, -0.5733206868171692, -0.0010049568660483287, 1727899887765199052, 
0.308987021446228, 0.30440354347229004, 0.03278683538793484, 1727899887795218637, 
0.3234862685203552, 0.39232921600341797, 0.0060754695866557205, 1727899887825291394, 
-0.1450129747390747, -0.3576003313064575, -0.03422888299305324, 1727899887855300611, 
-0.16578322649002075, -0.26142579317092896, -0.019444578669825095, 1727899887884382489, 
-0.008551478385925293, 0.4040517807006836, 0.01717382513368787, 1727899887917552605, 
0.11217445135116577, 0.2728012800216675, 0.016393456634065263, 1727899887946485358, 
0.04996919631958008, -0.5036641359329224, -0.008454851133431796, 1727899887975658825, 
0.09027272462844849, -0.19331640005111694, 0.012151008255524414, 1727899888005590747, 
-0.06315910816192627, 0.5001417398452759, 0.015102637240066705, 1727899888035636199, 
-0.025429129600524902, 0.12301725149154663, -0.02021732784631838, 1727899888065673603, 
-0.18070590496063232, -0.543316125869751, -0.024595165289351923, 1727899888095776680, 
0.12514930963516235, 0.06744116544723511, 0.021126158360898987, 1727899888125785513, 
0.08782428503036499, 0.5760321617126465, 0.018061327092490333, 1727899888157085891, 
0.14655238389968872, -0.26694929599761963, -0.01496099763035822, 1727899888189202542, 
-0.10060888528823853, -0.32394886016845703, 0.003903088107410568, 1727899888225958191, 
0.11076343059539795, 0.562774658203125, 0.01405353652367528, 1727899888255972857, 
0.22291570901870728, 0.22709697484970093, -0.04081091859880299, 1727899888286100641, 
-0.06758999824523926, -0.6937400698661804, -0.03328944164210674, 1727899888317092654, 
-0.006805121898651123, -0.019294679164886475, 0.0188809200148469, 1727899888349501757, 
-0.24256497621536255, 0.5777552723884583, 0.017136731756428786, 1727899888376306120, 
0.1177026629447937, 0.014406323432922363, -0.018287721727271, 1727899888406273018, 
0.35232728719711304, -0.5872793793678284, 0.002049015797452946, 1727899888436238529, 
-0.0031585693359375, 0.018790245056152344, 0.020951872854072847, 1727899888466269272, 
-0.061618030071258545, 0.6005883812904358, -0.0006173672121063082, 1727899888495423602, 
-0.0193558931350708, -0.14403820037841797, -0.03323166832359066, 1727899888526472644, 
-0.1539706587791443, -0.5451658964157104, 0.0033292056122493567, 1727899888557571309, 
0.22531145811080933, 0.19982218742370605, 0.03176187701592943, 1727899888589227269, 
0.15305399894714355, 0.5947769284248352, -0.007650594923657921, 1727899888616630446, 
0.11743617057800293, -0.407881498336792, -0.03402883195055038, 1727899888646660236, 
-0.1404663324356079, -0.4325392246246338, 0.003476023518956186, 1727899888676671020, 
-0.012304425239562988, 0.35738837718963623, 0.03556978619202397, 1727899888706736824, 
-0.058972179889678955, 0.3534756898880005, 0.01828954911715328, 1727899888736761779, 
-0.09895235300064087, -0.43402183055877686, -0.010343065817880014, 1727899888766799158, 
0.004969656467437744, -0.2835698127746582, -0.015020607275461078, 1727899888797747077, 
0.16112995147705078, 0.3797035813331604, -0.02695263354618128, 1727899888829178082, 
0.05719923973083496, 0.2369263768196106, -0.036504602415002904, 1727899888857021569, 
-0.1681845784187317, -0.4352119565010071, 0.0017264929053914058, 1727899888887116128, 
0.2509767413139343, 0.1942986249923706, 0.034585430872375034, 1727899888917289523, 
-0.009955286979675293, 0.3220563530921936, 0.013632773379996407, 1727899888947144574, 
-0.00941401720046997, -0.41344326734542847, -0.019902570676196562, 1727899888977127793, 
-0.11135506629943848, -0.26656413078308105, -0.001821234735198369, 1727899889007325038, 
0.16725844144821167, 0.3709070086479187, 0.026026230597903037, 1727899889037208203, 
0.12978023290634155, 0.21848922967910767, -0.011874458324416835, 1727899889069619859, 
-0.025398433208465576, -0.5343758463859558, -0.024995710053099415, 1727899889099456794, 
0.0784192681312561, -0.17450112104415894, 0.02138747709785992, 1727899889126386358, 
0.006202816963195801, 0.6495069265365601, 0.027404206200697303, 1727899889157457490, 
-0.16085082292556763, -0.036910295486450195, -0.00558440763139673, 1727899889187451968, 
-0.10169583559036255, -0.49464184045791626, -0.025545455378418066, 1727899889216620976, 
0.17615878582000732, 0.2340802550315857, 0.015332085259806394, 1727899889247571731, 
0.10406243801116943, 0.4658217430114746, 0.029024796547208076, 1727899889277679062, 
0.1848752498626709, -0.25187528133392334, -0.007643799176609104, 1727899889309258016, 
-0.09430080652236938, -0.3800659775733948, -0.029199178517054912, 1727899889340261628, 
-0.22396719455718994, 0.1424785852432251, 0.006272589469324461, 1727899889367751640, 
0.05034106969833374, 0.43407362699508667, 0.024106796196148902, 1727899889397800076, 
-0.010027170181274414, -0.3939834237098694, 0.0021959410082783713, 1727899889427864395, 
0.06617242097854614, -0.3588476777076721, 0.008891050563874663, 1727899889457941725, 
0.20332974195480347, 0.3976425528526306, 0.026057723679970973, 1727899889487973685, 
0.022195041179656982, 0.18672984838485718, -0.005219017260662706, 1727899889518056546, 
-0.09173750877380371, -0.47945302724838257, -0.031765942814339636, 1727899889549230112, 
0.03378945589065552, -0.014121472835540771, -0.0048515093582543025, 1727899889581961315, 
0.031109333038330078, 0.39979296922683716, 0.02056517244659923, 1727899889608178120, 
-0.17557978630065918, 0.12504851818084717, 0.010573966561768528, 1727899889638229954, 
0.206038236618042, -0.418576717376709, -0.0053938542015338885, 1727899889667378827, 
-0.2439369559288025, -0.021135926246643066, 0.0018504886336847609, 1727899889698339996, 
0.37980175018310547, 0.557951807975769, -0.015104465696711023, 1727899889727384467, 
-0.09141373634338379, -0.2550954818725586, -0.02925557925379629, 1727899889758429630, 
0.041386187076568604, -0.43719303607940674, -0.019444574898782638, 1727899889789225296, 
-0.10278624296188354, 0.3631289005279541, 0.025629348034403244, 1727899889821400114, 
0.14417141675949097, 0.2515637278556824, 0.02722171237006025, 1727899889847631566, 
0.05299574136734009, -0.5700028538703918, -0.02017002910655534, 1727899889878572815, 
-0.030291974544525146, -0.2976023554801941, -0.0019867343680663382, 1727899889908646953, 
0.048387348651885986, 0.6303529143333435, 0.007981652113147554, 1727899889938727184, 
0.1456853747367859, 0.1515781283378601, -0.014611745180143527, 1727899889968747982, 
-0.475551962852478, -0.6429593563079834, -0.017189493096023273, 1727899889998841817, 
0.028922975063323975, -0.09830951690673828, 0.03727936528531848, 1727899890029918926, 
0.09049886465072632, 0.7045122385025024, 0.027988382466719305, 1727899890060376024, 
0.29960256814956665, 0.1162405014038086, -0.04640702682869451, 1727899890089024680, 
-0.1429317593574524, -0.7239997386932373, -0.021776931335910635, 1727899890119091607, 
-0.029728591442108154, -0.04906296730041504, 0.027120085651608967, 1727899890149113708, 
-0.1442839503288269, 0.5971479415893555, -0.002024725698793032, 1727899890179199560, 
-0.12039750814437866, -0.5107860565185547, -0.03321657113038281, 1727899890209156423, 
-0.1770429015159607, -0.46808481216430664, 0.0067899462184874875, 1727899890239231203, 
0.13125890493392944, 0.49828243255615234, 0.027148158424615532, 1727899890269249740, 
0.057263076305389404, 0.48429131507873535, -0.016522789189990356, 1727899890301463066, 
-0.1349303126335144, -0.6738959550857544, -0.0597957347019581, 1727899890328384581, 
-0.02663099765777588, -0.2962561845779419, 0.006074939075637665, 1727899890358393705, 
0.08296900987625122, 0.7464579343795776, 0.0380590567874249, 1727899890389413688, 
-0.05928075313568115, 0.16174179315567017, -0.015262000122210127, 1727899890419454882, 
-0.10519713163375854, -0.6252555847167969, -0.011029148664294757, 1727899890449508751, 
0.21403378248214722, -0.12700456380844116, 0.05375633407471241, 1727899890479584498, 
0.2217159867286682, 0.7229434847831726, 0.031341605641037176, 1727899890509667213, 
0.061318814754486084, -0.042812883853912354, -0.048875298542639826, 1727899890541979562, 
-0.3374682068824768, -0.6354541778564453, -0.04223005673337478, 1727899890572448173, 
0.15841716527938843, 0.27997326850891113, 0.04939755545734567, 1727899890599876900, 
0.016362369060516357, 0.5665919780731201, 0.03589902994294327, 1727899890629840883, 
-0.04178500175476074, -0.4123757481575012, -0.02695635056066682, 1727899890659871750, 
-0.09438657760620117, -0.4705425500869751, -0.004306392668029819, 1727899890689989018, 
0.3466799259185791, 0.3359878659248352, 0.019205636342064025, 1727899890720017572, 
0.11855942010879517, 0.5550004839897156, -0.0384918851592979, 1727899890750045054, 
0.007569074630737305, -0.5869829058647156, -0.04410186345153627, 1727899890781462337, 
-0.30381667613983154, -0.3144003748893738, 0.01528150456761302, 1727899890813907060, 
0.25779497623443604, 0.5895723104476929, 0.052397979550871346, 1727899890840183329, 
0.12452274560928345, 0.31241440773010254, -0.009054805201565114, 1727899890870317463, 
0.00749814510345459, -0.7941179871559143, -0.024036294725495715, 1727899890900247591, 
-0.13481640815734863, -0.2172393798828125, 0.022325451420444488, 1727899890930337530, 
0.07500272989273071, 0.7054779529571533, 0.03574181045207979, 1727899890959376063, 
-0.19430243968963623, 0.016668319702148438, -0.022777439939482804, 1727899890990459018, 
0.05109381675720215, -0.6345937252044678, -0.028042038312614904, 1727899891021467408, 
0.02527904510498047, -0.04071527719497681, 0.0010320855183263296, 1727899891053807879, 
0.26544755697250366, 0.6121820211410522, -0.0007203053670895604, 1727899891080619131, 
0.14899533987045288, -0.10237282514572144, -0.020440719142232448, 1727899891110646057, 
-0.13923078775405884, -0.5749679803848267, -0.005824972742327008, 1727899891132376460, 
0.062326908111572266, 0.011461138725280762, 0.02776428652909404, 1727899891160732699, 
0.12143188714981079, 0.47664177417755127, 0.03824464966519112, 1727899891190794911, 
0.2073591947555542, -0.05037015676498413, 0.0008056863305112128, 1727899891220837190, 
0.016656994819641113, -0.47028040885925293, -0.01917016548449443, 1727899891250878700, 
-0.18924200534820557, 0.0801842212677002, -0.007161014906873682, 1727899891280970096, 
-0.10803145170211792, 0.4435405731201172, 0.0004774920529746962, 1727899891310944367, 
0.041135549545288086, -0.21825379133224487, -0.01372171092694702, 1727899891341639056, 
0.11301499605178833, -0.3113132119178772, -0.008928454833344118, 1727899891374016435, 
0.07326042652130127, 0.28376322984695435, 0.016054150915437448, 1727899891410360864, 
0.041165292263031006, -0.09747755527496338, 0.010930791815060006, 1727899891441202563, 
-0.06680923700332642, -0.29583364725112915, 0.003835900210581091, 1727899891471178987, 
0.14049923419952393, 0.16938263177871704, 0.013369788791914928, 1727899891502315967, 
-0.04545557498931885, 0.24598664045333862, 0.007590174207282909, 1727899891533464915, 
0.1240389347076416, -0.3218408226966858, -0.014150743934400899, 1727899891563278743, 
-0.028647959232330322, -0.13508564233779907, -0.02856615949630296, 1727899891591414687, 
-0.13095790147781372, 0.3329155445098877, -0.015455976902114862, 1727899891621468201, 
-0.04966902732849121, 0.18122953176498413, 0.004720727163084451, 1727899891651476977, 
0.23993909358978271, -0.37260186672210693, 0.021778141278307107, 1727899891681566863, 
0.015348076820373535, -0.018078982830047607, 0.027957161506044884, 1727899891711852494, 
0.09580385684967041, 0.3734104633331299, 0.025496392352099568, 1727899891740662384, 
-0.017589986324310303, -0.014393150806427002, -0.013182572605899296, 1727899891772738640, 
-0.14409440755844116, -0.43492865562438965, -0.025670151896463145, 1727899891804662462, 
-0.1273479461669922, 0.09366792440414429, 0.00046219905587827786, 1727899891831823158, 
-0.050694406032562256, 0.45096415281295776, 0.009631501721106968, 1727899891861784385, 
0.0615084171295166, 0.09831976890563965, 0.0016241633455758547, 1727899891884870650, 
0.018970727920532227, -0.46110594272613525, 0.0016896669518378772, 1727899891911936958, 
-0.18791770935058594, -0.04468977451324463, 0.006313052799564204, 1727899891941934843, 
0.0685497522354126, 0.4811468720436096, -0.008940383335092202, 1727899891972045944, 
0.04748547077178955, -0.0038584470748901367, -0.02467223616195635, 1727899892002051161, 
-0.0252455472946167, -0.46583807468414307, -0.019136674816406758, 1727899892032114817, 
-0.07343220710754395, 0.09347015619277954, 0.015536126416895144, 1727899892062300043, 
-0.05438649654388428, 0.389919638633728, 0.026402754448704734, 1727899892093576223, 
-0.092010498046875, -0.21511447429656982, -0.011770622153820917, 1727899892125335275, 
-0.08549332618713379, -0.35095179080963135, -0.010485501120126233, 1727899892151369840, 
0.24341446161270142, 0.2789771556854248, 0.007969807964363649, 1727899892182328754, 
0.026734530925750732, 0.32189875841140747, -0.022157803603016956, 1727899892212408406, 
-0.17271637916564941, -0.41510117053985596, -0.01964129223786201, 1727899892242567225, 
-0.17194581031799316, -0.12844979763031006, 0.03763659286274587, 1727899892272715250, 
0.0023741722106933594, 0.4775829315185547, 0.036013602832759936, 1727899892302541143, 
-0.012176692485809326, 0.0962027907371521, -0.02726373122694923, 1727899892333972091, 
0.016858160495758057, -0.5401483774185181, -0.025571708866754774, 1727899892364370564, 
0.04350978136062622, 0.09678000211715698, 0.022777755212299047, 1727899892392704660, 
0.07385176420211792, 0.49024081230163574, 0.004644184634668074, 1727899892421700680, 
0.22817140817642212, -0.15061044692993164, -0.03737670118134792, 1727899892452897582, 
-0.29949963092803955, -0.5205879211425781, -0.010499740189701408, 1727899892482830559, 
0.1714763045310974, 0.30654793977737427, 0.029031879231646938, 1727899892512887286, 
-0.1264575719833374, 0.4973457455635071, -0.0028462866073162094, 1727899892542973056, 
0.05983918905258179, -0.42924964427948, -0.04786192184682315, 1727899892573760104, 
-0.05828362703323364, -0.3590312600135803, 0.0033865059799137406, 1727899892605693002, 
0.23076152801513672, 0.40774720907211304, 0.04007144042026656, 1727899892633178636, 
0.17199665307998657, 0.14940959215164185, -0.018851576499096922, 1727899892663979267, 
-0.16662150621414185, -0.6673635840415955, -0.026616928012867067, 1727899892693979179, 
-0.01521843671798706, -0.10510993003845215, 0.02824960797735026, 1727899892723947363, 
-0.019763290882110596, 0.7174710631370544, 0.026824090710245985, 1727899892753952395, 
0.16160231828689575, -0.023041605949401855, -0.04293411281818694, 1727899892783962377, 
-0.17904376983642578, -0.6787159442901611, -0.034507187323326444, 1727899892814021772, 
-0.013948440551757812, 0.1502658724784851, 0.022452545172517924, 1727899892845811882, 
0.1753910779953003, 0.6446743011474609, 0.03273175752779161, 1727899892875584953, 
0.03927892446517944, -0.16261506080627441, -0.01755199107740517, 1727899892904146895, 
-0.17132914066314697, -0.6049418449401855, -0.014409542726681287, 1727899892934089155, 
0.08741146326065063, 0.3604995012283325, 0.009973889772091266, 1727899892964053324, 
-0.022005558013916016, 0.5296837091445923, -8.932285325541063e-05, 1727899892994095300, 
-0.05195724964141846, -0.5227301120758057, -0.01725851097661374, 1727899893024083911, 
-0.07786047458648682, -0.2538541555404663, 0.010675240621456462, 1727899893054162234, 
0.11440539360046387, 0.5206891298294067, 0.017676017123910554, 1727899893085522638, 
0.11003196239471436, 0.2731643319129944, -0.0043423760044840895, 1727899893116603062, 
-0.1392437219619751, -0.6766639351844788, -0.018522461811823144, 1727899893144219539, 
-0.10388284921646118, -0.04402482509613037, 0.0013108110739832245, 1727899893174275984, 
0.01662743091583252, 0.6352868676185608, 0.012999085680853393, 1727899893204240167, 
0.07300877571105957, -0.14295709133148193, -0.008038101890101625, 1727899893234325492, 
-0.06929105520248413, -0.5498080849647522, -0.014052152457646317, 1727899893264295149, 
0.2641240358352661, 0.27856338024139404, -0.00031033419524443515, 1727899893294395831, 
-0.026408374309539795, 0.4510861039161682, -0.013458802231990445, 1727899893325779470, 
-0.055579423904418945, -0.4422342777252197, -0.013972426541305835, 1727899893357448270, 
-0.07598328590393066, -0.3804861307144165, 0.027433541927721315, 1727899893384437706, 
0.05612987279891968, 0.45398133993148804, 0.026821959247401057, 1727899893414412568, 
0.016876280307769775, 0.5812085270881653, -0.007762422284837039, 1727899893437702618, 
-0.07483398914337158, -0.18192166090011597, -0.036450189753247784, 1727899893464424174, 
-0.05565214157104492, -0.5251561999320984, 0.0044932730701747504, 1727899893494496977, 
-0.14708971977233887, 0.2845509648323059, 0.028918709355997045, 1727899893524513268, 
0.05779850482940674, 0.50525963306427, -0.0177468131602985, 1727899893554579706, 
0.14393329620361328, -0.3320782780647278, -0.0355865871145321, 1727899893584629549, 
0.17831450700759888, -0.4708923101425171, 0.011355487704844831, 1727899893614708300, 
0.008826196193695068, 0.3895537853240967, 0.018147180475356132, 1727899893645511602, 
-0.24034428596496582, 0.38432103395462036, -0.013677165533909408, 1727899893677886701, 
-0.0440748929977417, -0.4303114414215088, -0.024681766259562365, 1727899893704865547, 
-0.00017410516738891602, -0.32182204723358154, 0.01760524722925182, 1727899893734924781, 
0.15865206718444824, 0.5345444083213806, 0.009466228480909675, 1727899893764926558, 
0.14125394821166992, 0.18204665184020996, -0.021455020119943307, 1727899893794994787, 
-0.04856342077255249, -0.5041750073432922, -0.002182001812522824, 1727899893825032466, 
0.17545866966247559, -0.0672682523727417, 0.028437197039817702, 1727899893855161148, 
-0.1367030143737793, 0.48908543586730957, 0.003075126531658927, 1727899893885492319, 
-0.13991177082061768, -0.33987247943878174, -0.012030959574625202, 1727899893917938102, 
-0.056986868381500244, -0.3088752031326294, 0.03231767916588283, 1727899893945307957, 
0.30371296405792236, 0.4746350646018982, 0.03635939874406447, 1727899893975294171, 
0.01053309440612793, 0.2625715136528015, -0.026645716408683264, 1727899894005316209, 
-0.08390527963638306, -0.5770963430404663, -0.046682228121642806, 1727899894034385498, 
-0.16500383615493774, -0.08921599388122559, 0.009832427295669, 1727899894065416822, 
0.10472524166107178, 0.6211044788360596, 0.034342170807682405, 1727899894095488365, 
-0.015671849250793457, 0.038202643394470215, -0.020568515955132774, 1727899894125826120, 
-0.16967976093292236, -0.5841885805130005, -0.02180931750744667, 1727899894157800151, 
0.20836752653121948, 0.09470432996749878, 0.029205395352392426, 1727899894187702924, 
0.2737153172492981, 0.648016631603241, 0.018702152904272257, 1727899894215674928, 
0.17337512969970703, -0.1099855899810791, -0.04251429919934856, 1727899894245698766, 
-0.1005750298500061, -0.7872370481491089, -0.03805130445565391, 1727899894268313570, 
-0.14223593473434448, 0.26010560989379883, 0.02787355232478088, 1727899894305770603, 
0.056227147579193115, 0.6390459537506104, 0.04629081808672356, 1727899894334832630, 
0.20961183309555054, -0.3846120834350586, -0.005895960475638086, 1727899894365892181, 
0.2313479781150818, -0.5773663520812988, -0.0014270033362452782, 1727899894398134826, 
0.11230766773223877, 0.41900521516799927, 0.02306128127403886, 1727899894429296618, 
-0.16539883613586426, 0.4932628870010376, 0.00212958557392801, 1727899894456081005, 
-0.2456682324409485, -0.5381771326065063, -0.027298089432488234, 1727899894486118322, 
-0.0058776140213012695, -0.6384413838386536, -0.004011834750873667, 1727899894509951672, 
0.23525279760360718, 0.2659890651702881, 0.023142788800853003, 1727899894536238399, 
0.24461114406585693, 0.5031181573867798, -0.010876280486145811, 1727899894566219701, 
-0.028079509735107422, -0.41358673572540283, -0.042831606040514336, 1727899894596291206, 
-0.19850605726242065, -0.38629627227783203, -0.00805835359242983, 1727899894626314450, 
0.18855732679367065, 0.48897844552993774, 0.020463301835711187, 1727899894655441688, 
-0.022357046604156494, 0.3172907829284668, -0.007945858364462929, 1727899894686506017, 
-0.03594154119491577, -0.5990336537361145, -0.016846793016964894, 1727899894717542124, 
0.1419181227684021, -0.17945337295532227, 0.01403847504242479, 1727899894749521692, 
0.07781422138214111, 0.5693508386611938, 0.011087531099209652, 1727899894776651158, 
-0.0350680947303772, 0.0557897686958313, -0.02379819204129513, 1727899894806617261, 
-0.10681372880935669, -0.5692451000213623, -0.003983654830831455, 1727899894836648991, 
-0.004474163055419922, 0.0703766942024231, 0.033124908850628486, 1727899894866681018, 
0.23936861753463745, 0.542433500289917, 0.004353852678672736, 1727899894896748224, 
0.25399118661880493, -0.2863160967826843, -0.024461310770687774, 1727899894926816400, 
-0.14330577850341797, -0.5059336423873901, 0.01776722429459223, 1727899894957444952, 
-0.07049256563186646, 0.38641035556793213, 0.03123889089536512, 1727899894989472395, 
0.01683908700942993, 0.43218904733657837, -0.033421264286176214, 1727899895017031135, 
-0.03644651174545288, -0.47159796953201294, -0.056045882627748025, 1727899895047007466, 
-0.07704746723175049, -0.38368022441864014, 0.013294543942998182, 1727899895077065565, 
0.18277007341384888, 0.5088449120521545, 0.034264683770540684, 1727899895107178639, 
0.013393163681030273, 0.4371023178100586, -0.016500446193576185, 1727899895137236227, 
0.0843321681022644, -0.6754536628723145, -0.01348366174271832, 1727899895167327092, 
0.18469887971878052, -0.008028686046600342, 0.02202896356070605, 1727899895197558445, 
0.030912816524505615, 0.6752950549125671, -0.006448085970307396, 1727899895229503946, 
-0.07588529586791992, -0.14704203605651855, -0.04098286201100761, 1727899895256373041, 
-0.08003503084182739, -0.541172206401825, -0.006256895357505837, 1727899895287420747, 
0.036782145500183105, 0.166711688041687, 0.04007980974079475, 1727899895317399499, 
0.003426849842071533, 0.5639650225639343, 0.004167274148073437, 1727899895347467442, 
0.006170988082885742, -0.3695407509803772, -0.032037578478499196, 1727899895377522456, 
0.15236514806747437, -0.388271689414978, 0.01457166233495681, 1727899895407595171, 
0.03051382303237915, 0.4484575390815735, 0.03674288848991847, 1727899895437697382, 
-0.12026810646057129, 0.3173481225967407, 0.004820249206378348, 1727899895469978038, 
-0.1227266788482666, -0.4225901961326599, -0.022243232189250648, 1727899895497783097, 
0.1439727544784546, -0.1476643681526184, -0.008575498875837835, 1727899895527780691, 
0.3762319087982178, 0.35198092460632324, -0.006806201115302593, 1727899895557801628, 
0.045611679553985596, 0.08377760648727417, -0.02814335276984751, 1727899895587902142, 
-0.204983651638031, -0.4370386600494385, -0.0025789521184106743, 1727899895617930049, 
0.1151198148727417, 0.10895782709121704, 0.037868979621401254, 1727899895647996507, 
-0.11072444915771484, 0.4334980845451355, 0.020043267316295292, 1727899895678096805, 
0.10846936702728271, -0.2076495885848999, -0.022085967403395586, 1727899895709933272, 
0.10663020610809326, -0.41924452781677246, -0.002731467123253442, 1727899895740330884, 
0.0376359224319458, 0.30737751722335815, 0.03717787797427849, 1727899895768276640, 
0.0854032039642334, 0.3561551570892334, -0.004364130590090382, 1727899895798203242, 
-0.17868483066558838, -0.4187811613082886, -0.036155978987984866, 1727899895828241877, 
-0.12486386299133301, -0.31976938247680664, 0.0035884839002433607, 1727899895858289823, 
0.00630497932434082, 0.5420020222663879, 0.021062587420911816, 1727899895887349418, 
0.0666002631187439, 0.25546371936798096, -0.014669269772673873, 1727899895918403503, 
-0.08273428678512573, -0.5140067934989929, -0.022410991854796714, 1727899895949574718, 
-0.00011795759201049805, -0.15223324298858643, 0.01623712533225866, 1727899895982107129, 
0.08188581466674805, 0.5441047549247742, 0.018568620526224787, 1727899896008553116, 
0.009400606155395508, 0.07782131433486938, -0.03490204161029567, 1727899896038608533, 
-0.046152710914611816, -0.575036346912384, -0.03843847309036546, 1727899896068655661, 
-0.02728050947189331, -0.01650911569595337, -0.004325433242769373, 1727899896098778762, 
-0.06622278690338135, 0.5726153254508972, 0.00644961976244607, 1727899896128750460, 
0.051680028438568115, -0.06914055347442627, 0.006264256750585027, 1727899896158816551, 
0.07741940021514893, -0.5781655311584473, 0.021934748513824393, 1727899896188930759, 
0.061958134174346924, 0.22574174404144287, 0.024980654112389766, 1727899896221717917, 
-0.1908966302871704, 0.4017207622528076, 0.003984299862974251, 1727899896248975825, 
0.09917253255844116, -0.192446768283844, -0.01886444571916178, 1727899896278988873, 
-0.05482971668243408, -0.5064100027084351, -0.0024925453953266786, 1727899896302447689, 
-0.03726154565811157, 0.05286651849746704, 0.022477148912587844, 1727899896329235888, 
-0.08835434913635254, 0.4811621308326721, 0.012487835777705488, 1727899896359226111, 
-0.09370160102844238, -0.4283311367034912, 0.0043171018460283345, 1727899896389478465, 
-0.07869577407836914, -0.23676025867462158, 0.010579435833698015, 1727899896419305793, 
-0.007477104663848877, 0.489061176776886, 0.008216827949003266, 1727899896449274249, 
0.0048514604568481445, 0.13521522283554077, -0.02857817748936445, 1727899896478351339, 
-0.13923096656799316, -0.5663638710975647, -0.03485330187008592, 1727899896509597715, 
0.2540622353553772, 0.0485459566116333, 0.016426613523720508, 1727899896542045690, 
-0.016943037509918213, 0.5295703411102295, 0.025024401209119765, 1727899896569498908, 
0.05622202157974243, -0.17643427848815918, -0.014040270299207803, 1727899896599505758, 
-0.1344362497329712, -0.4720138907432556, -0.0016720990401929414, 1727899896629591377, 
0.053084731101989746, 0.23149597644805908, 0.03137364558358121, 1727899896659631092, 
0.200858473777771, 0.529064416885376, 0.007148410241511614, 1727899896689698558, 
-0.13052797317504883, -0.36489641666412354, -0.03227253887575974, 1727899896719734445, 
0.03195768594741821, -0.5047990679740906, 0.013456860781151735, 1727899896750275815, 
0.06546765565872192, 0.6019061207771301, 0.04550935196923133, 1727899896781745591, 
-0.0262911319732666, 0.40281641483306885, -0.018051069251445576, 1727899896811866268, 
-0.11126995086669922, -0.7429314851760864, -0.031125565397539395, 1727899896849912711, 
-0.022150099277496338, 0.01588338613510132, 0.028153568228317615, 1727899896879961321, 
-0.11354202032089233, 0.6762883067131042, 0.0043184654123998535, 1727899896910022422, 
0.05563861131668091, -0.13388490676879883, -0.039324320287334166, 1727899896942339495, 
-0.011985540390014648, -0.564781904220581, -0.018117840688011606, 1727899896972895936, 
0.37852543592453003, 0.1383877992630005, 0.027877979139076855, 1727899897000219699, 
-0.037561655044555664, 0.7186490893363953, -0.013156113340542527, 1727899897030270875, 
-0.11632364988327026, -0.4584032893180847, -0.0400703217064302, 1727899897060258980, 
-0.01987391710281372, -0.43911129236221313, -9.683820788997192e-05, 1727899897090395284, 
0.17047536373138428, 0.5673049688339233, 0.038465143927337575, 1727899897120402856, 
0.14979863166809082, 0.3024080991744995, -0.002367799884833365, 1727899897150453515, 
-0.07094442844390869, -0.6701934337615967, -0.028733857138781158, 1727899897181746165, 
-0.09523463249206543, -0.30344003438949585, 0.017506512994337753, 1727899897213743401, 
0.09723317623138428, 0.6979357600212097, 0.03468795476936014, 1727899897240611997, 
0.04959028959274292, 0.12329357862472534, -0.03619096955530328, 1727899897270626849, 
-0.2010962963104248, -0.7249951362609863, -0.040537968700520316, 1727899897300654909, 
-0.1097944974899292, 0.09431654214859009, 0.03135567782097018, 1727899897330722690, 
0.3731573224067688, 0.622752845287323, 0.031582808304256534, 1727899897360731825, 
-0.117409348487854, -0.13974308967590332, -0.02335301101155843, 1727899897390787891, 
-0.12688636779785156, -0.6481213569641113, -0.0026024940961037048, 1727899897422025296, 
-0.0048340559005737305, 0.367811918258667, 0.03636330779731541, 1727899897454083569, 
-0.04312676191329956, 0.6043067574501038, -0.011709579855963818, 1727899897481025442, 
-0.0902138352394104, -0.47503572702407837, -0.047301013054119295, 1727899897511031961, 
-0.056221842765808105, -0.5028892159461975, 0.0055501624817777435, 1727899897541052323, 
0.25315582752227783, 0.5777865052223206, 0.04176736520540627, 1727899897571118606, 
0.09146773815155029, 0.5915200710296631, -0.008347806897921608, 1727899897601223129, 
-0.029301345348358154, -0.7298592329025269, -0.03010794367850295, 1727899897631285648, 
0.1132550835609436, -0.1493985652923584, 0.02571537585071465, 1727899897661709002, 
-0.026462018489837646, 0.8020316362380981, 0.0352305509722411, 1727899897693859599, 
-0.10701882839202881, 0.015972256660461426, -0.017411928160713526, 1727899897721435893, 
-0.1852787733078003, -0.7444354891777039, -0.03122468914388749, 1727899897751421354, 
0.14612293243408203, 0.09500658512115479, -0.0023803858751111286, 1727899897781418165, 
0.26112401485443115, 0.6824877262115479, -0.0028966344298112364, 1727899897811469678, 
0.1386234164237976, -0.21992701292037964, -0.019697399922090568, 1727899897841499366, 
-0.1389014720916748, -0.5253309011459351, -0.008902312664473267, 1727899897871574212, 
-0.012391328811645508, 0.31024855375289917, 0.02281214966178479, 1727899897902155975, 
-0.08256876468658447, 0.4703431725502014, 0.017063884464194295, 1727899897934060177, 
0.08235204219818115, -0.33942413330078125, -0.021308682273848127, 1727899897963795210, 
-0.023927509784698486, -0.10937130451202393, -0.0029226557688980387, 1727899898001776174, 
0.17590928077697754, 0.51671302318573, 0.017539778266172566, 1727899898031866112, 
0.0021948814392089844, 0.04062563180923462, -0.007503720359546509, 1727899898061900926, 
0.03769892454147339, -0.5638765692710876, -0.004334964645000627, 1727899898094519879, 
-0.1506657600402832, 0.12042325735092163, 0.01461214057122113, 1727899898124837465, 
-0.017574012279510498, 0.5401023626327515, 0.0010585249578334787, 1727899898152087504, 
0.024680614471435547, -0.2055455446243286, -0.017798711451012136, 1727899898182094558, 
-0.09048265218734741, -0.4184291958808899, 0.006653949445480594, 1727899898212127831, 
0.21223413944244385, 0.38064539432525635, 0.02074573596894673, 1727899898242188144, 
0.020978987216949463, 0.3348007798194885, -0.016692682649414464, 1727899898272260405, 
0.10612082481384277, -0.39824819564819336, -0.03292815311953947, 1727899898302311296, 
-0.1638716459274292, -0.26995956897735596, 0.0009344276649434929, 1727899898333824588, 
-0.12351334095001221, 0.5156304836273193, 0.007532144288547491, 1727899898365751458, 
-0.19696855545043945, 0.23228299617767334, -0.01580990126266864, 1727899898392439828, 
0.21860313415527344, -0.5754193663597107, 0.012975264852667612, 1727899898422505380, 
0.2397674322128296, -0.06445091962814331, 0.04039613368089004, 1727899898452521425, 
0.0835273265838623, 0.5768978595733643, 0.003393800067177792, 1727899898482582775, 
-0.05403369665145874, -0.04960352182388306, -0.04341913429971111, 1727899898512607971, 
-0.13918393850326538, -0.5831783413887024, -0.03270224961929485, 1727899898542717666, 
-0.05560410022735596, 0.13015002012252808, 0.0201750759929992, 1727899898573885629, 
0.029857099056243896, 0.5602664947509766, 0.01491223061522982, 1727899898606159494, 
0.11035853624343872, -0.12205666303634644, -0.01854080433789245, 1727899898632881701, 
0.09906429052352905, -0.5595557689666748, 0.0009522014541748846, 1727899898662981876, 
-0.06360459327697754, 0.24520021677017212, 0.019935290348787375, 1727899898692917986, 
-0.05944561958312988, 0.5382026433944702, -0.007312971997459904, 1727899898722983534, 
0.058509647846221924, -0.307861328125, -0.029267310546633143, 1727899898752995819, 
-0.1498602032661438, -0.3880780339241028, 0.00764823175399976, 1727899898783147973, 
0.27404338121414185, 0.40235376358032227, 0.04198693989267937, 1727899898813778192, 
0.12011575698852539, 0.332505464553833, -0.003703808439892089, 1727899898846029941, 
0.044950008392333984, -0.404935359954834, -0.025590386138826447, 1727899898873302464, 
0.18140262365341187, 0.06612008810043335, 0.010246093660558918, 1727899898903576599, 
-0.03361105918884277, 0.44819408655166626, 0.00784217738938498, 1727899898932384774, 
-0.2169068455696106, -0.16950476169586182, -0.014765898942309733, 1727899898962379914, 
-0.038674116134643555, -0.4499472975730896, 0.0014322735961447197, 1727899898993397124, 
0.06223917007446289, 0.3753601312637329, 0.03712489102733588, 1727899899023510700, 
0.28562498092651367, 0.3284721374511719, -0.004253130364987343, 1727899899054339936, 
-0.036988675594329834, -0.46537572145462036, -0.04338142372480363, 1727899899085739373, 
-0.05799233913421631, -0.2026473879814148, -0.010377613675850352, 1727899899113654348, 
0.16701507568359375, 0.5080223083496094, 0.02757274804954319, 1727899899144318782, 
-0.07459020614624023, 0.20398157835006714, -0.00011118894703894017, 1727899899174305157, 
-0.17551088333129883, -0.6864214539527893, -0.018313497348122397, 1727899899204321298, 
-0.08599501848220825, -0.03611868619918823, 0.015468582794838726, 1727899899233353023, 
0.22867804765701294, 0.5970475077629089, 0.01864509806940452, 1727899899263381203, 
0.14912569522857666, -0.0377383828163147, -0.028630418518603616, 1727899899294432375, 
-0.14266818761825562, -0.6662091016769409, -0.02561541714481261, 1727899899325396917, 
0.0094490647315979, 0.1687861680984497, 0.022340047016455245, 1727899899356604550, 
-0.06595796346664429, 0.6064449548721313, 0.015154532483076593, 1727899899384496025, 
0.09863197803497314, -0.27721601724624634, -0.0322289231530949, 1727899899413386778, 
-0.06103724241256714, -0.5042281746864319, -0.008796823891005822, 1727899899444459327, 
0.09034663438796997, 0.3750392198562622, 0.03171421264625188, 1727899899474502815, 
-0.05842280387878418, 0.48640143871307373, -0.004360412286242199, 1727899899504480320, 
-0.03871101140975952, -0.45966142416000366, -0.041748876767201334, 1727899899534542515, 
-0.16682803630828857, -0.35551732778549194, 0.00393054791818797, 1727899899566190229, 
-0.004365324974060059, 0.5239929556846619, 0.025733080881685157, 1727899899597012655, 
-0.03669863939285278, 0.3644419312477112, -0.0010291981034334901, 1727899899624676555, 
0.22854506969451904, -0.6418430805206299, -0.010399099516714496, 1727899899654563009, 
-0.06506174802780151, -0.21855980157852173, 0.009752845011581305, 1727899899684727945, 
0.11119258403778076, 0.567808985710144, 0.004291760941078342, 1727899899714716271, 
-0.10077577829360962, 0.1548517346382141, -0.03095911630192219, 1727899899744729682, 
-0.16673660278320312, -0.5989573001861572, -0.01479489361420543, 1727899899774726662, 
0.0694350004196167, 0.056424498558044434, 0.0202446789846787, 1727899899805762648, 
-0.012714207172393799, 0.5760749578475952, -0.011520258780795836, 1727899899837783403, 
0.1555039882659912, -0.20084691047668457, -0.03048499022151157, 1727899899864867485, 
0.009246587753295898, -0.49223291873931885, 0.010367631457477617, 1727899899894831592, 
-0.05510050058364868, 0.34791046380996704, 0.021184349251364684, 1727899899924959363, 
-0.11274641752243042, 0.4504525661468506, -0.006497212325381177, 1727899899954937069, 
-0.055961787700653076, -0.3477625250816345, -0.01243141659853184, 1727899899985084656, 
-0.1775171160697937, -0.30774009227752686, 0.019395650268452146, 1727899900015059618, 
0.2258387804031372, 0.44094961881637573, 0.0007828325472452162, 1727899900044844115, 
0.10869961977005005, 0.37852752208709717, -0.03322560097767864, 1727899900077369887, 
0.11690390110015869, -0.6287519931793213, -0.0008581349909198329, 1727899900105272318, 
-0.0568615198135376, -0.21194475889205933, 0.04570950260475972, 1727899900134366074, 
-0.09485113620758057, 0.6011003255844116, 0.023035181494802225, 1727899900165635352, 
-0.08349698781967163, -0.211775541305542, -0.034085792708224705, 1727899900195442340, 
-0.12409073114395142, -0.5351561903953552, -0.03543168381100118, 1727899900225453017, 
-0.026982009410858154, 0.3518409729003906, 0.019368090920811855, 1727899900255465489, 
0.13606023788452148, 0.4270470142364502, 0.01095321968309636, 1727899900285803324, 
0.1001349687576294, -0.3206675052642822, -0.029142457875275717, 1727899900317789539, 
0.09786921739578247, -0.43706274032592773, -0.007543643243617808, 1727899900345650641, 
-0.11647623777389526, 0.42838478088378906, 0.017049664524990862, 1727899900375626517, 
-0.13319730758666992, 0.33267658948898315, -0.0022247366501401207, 1727899900405680492, 
-0.2255532145500183, -0.4154539704322815, -0.020023952067824508, 1727899900435715621, 
0.18530797958374023, -0.17479175329208374, 0.004298402376449701, 1727899900465812536, 
0.06184810400009155, 0.450946569442749, 0.020133524266151403, 1727899900495980313, 
0.1107291579246521, 0.06911379098892212, -0.010991907028039425, 1727899900526237591, 
-0.12389498949050903, -0.4665922522544861, -0.024401841535249227, 1727899900558047936, 
0.010644912719726562, 0.1407489776611328, -0.0018495617037218347, 1727899900587987308, 
-0.010192155838012695, 0.3288009762763977, 0.028647606923345417, 1727899900616041073, 
-0.19568592309951782, -0.1449267864227295, 0.014788139309840949, 1727899900646093998, 
0.13430321216583252, -0.5013725757598877, 0.01524387935002291, 1727899900667666291, 
0.0793006420135498, 0.12717974185943604, 0.021243501386082525, 1727899900696269460, 
-0.0306093692779541, 0.38711076974868774, 0.0037736156979021373, 1727899900726204028, 
-0.06792968511581421, -0.24361538887023926, -0.029393651738472866, 1727899900756289937, 
-0.18393701314926147, -0.3585166335105896, -0.034071766799202666, 1727899900786321790, 
-0.00975024700164795, 0.3064979910850525, 0.007670429797920534, 1727899900816402148, 
0.14851289987564087, 0.3601366877555847, 0.009826326645348386, 1727899900846491431, 
-0.0004330873489379883, -0.4958871006965637, -0.008189339898292068, 1727899900877841722, 
-0.06762248277664185, -0.282442569732666, -0.006991171986801102, 1727899900910203892, 
0.009545087814331055, 0.5382444858551025, 0.009752616354502504, 1727899900936604113, 
0.0868309736251831, 0.3047410249710083, -0.014886825963746006, 1727899900966654571, 
-0.05966562032699585, -0.58583664894104, -0.03118226447551301, 1727899900996652660, 
-0.13873034715652466, -0.29592543840408325, 0.006291662497738558, 1727899901026719841, 
-0.04780292510986328, 0.5787317752838135, 0.04073232814903427, 1727899901056763492, 
0.2653140425682068, 0.19723737239837646, 0.008135494300532342, 1727899901087169348, 
0.014511168003082275, -0.5567811727523804, -0.02579103508363801, 1727899901118153708, 
0.06815695762634277, -0.19832640886306763, 0.0007154162814783781, 1727899901149820858, 
0.029192328453063965, 0.5609124898910522, 0.01413331142400136, 1727899901177055010, 
-0.1660078763961792, 0.07015359401702881, -0.01160098810959848, 1727899901207024924, 
0.11554092168807983, -0.7352935671806335, 0.0025546751685929033, 1727899901237053660, 
0.13162219524383545, 0.21491414308547974, 0.021472802935055036, 1727899901267081916, 
0.05197829008102417, 0.5187963843345642, 0.004318815998712015, 1727899901297140725, 
0.04655081033706665, -0.15283530950546265, -0.024960301876981904, 1727899901326178674, 
-0.18716222047805786, -0.46967196464538574, -0.007685869352407076, 1727899901358268722, 
-0.031395018100738525, 0.2135164737701416, 0.00795662816546848, 1727899901389951410, 
0.06755721569061279, 0.14036226272583008, -0.0005000001916904649, 1727899901417677982, 
-0.12138998508453369, -0.5599560737609863, -0.003770053851145923, 1727899901447554131, 
0.2936249375343323, -0.13666224479675293, 0.01962619582945844, 1727899901477452198, 
-0.05203741788864136, 0.5048506855964661, 0.0062645962020231255, 1727899901507476251, 
-0.009573578834533691, -0.002292037010192871, -0.021960586880531513, 1727899901537580014, 
-0.1435471773147583, -0.4886106848716736, -0.009058021374312539, 1727899901567759047, 
0.033062100410461426, 0.19418418407440186, 0.027728814407313285, 1727899901597885245, 
-0.004327595233917236, 0.5155657529830933, -0.0014074554364026358, 1727899901629944517, 
0.029301762580871582, -0.45155030488967896, -0.03229477528473826, 1727899901657784349, 
0.0357094407081604, -0.39508700370788574, 0.009802065844671188, 1727899901687805081, 
-0.09821587800979614, 0.4742855429649353, 0.03648178747898677, 1727899901717849111, 
-0.11316704750061035, 0.37796032428741455, -0.020754479686597035, 1727899901747876076, 
0.08302956819534302, -0.5850383043289185, -0.05550053698776083, 1727899901777960426, 
-0.29098737239837646, -0.434259831905365, 0.005790674387553421, 1727899901807923391, 
0.45862776041030884, 0.6312485337257385, 0.025703488248218182, 1727899901838065129, 
-0.46779054403305054, 0.42879271507263184, -0.02624423267960622, 1727899901870450412, 
0.18384253978729248, -0.8422954678535461, -0.03493645605976341, 1727899901900187604, 
-0.20175039768218994, -0.09644389152526855, 0.027221219909711093, 1727899901928186071, 
0.10258901119232178, 0.7163416743278503, 0.029927433524043447, 1727899901958226229, 
-0.1126062273979187, 0.029239773750305176, -0.025522302068176704, 1727899901988260502, 
-0.1265859603881836, -0.6804648637771606, -0.01261370219408391, 1727899902018322483, 
0.24048280715942383, 0.0036783218383789062, 0.04997658536460316, 1727899902047370088, 
0.13813191652297974, 0.6680939793586731, 0.008934272777741573, 1727899902078526504, 
0.04571676254272461, -0.15621662139892578, -0.03946438441322348, 1727899902109947488, 
-0.0813552737236023, -0.5458076000213623, -0.009895701793564448, 1727899902141304334, 
0.036867737770080566, 0.23093676567077637, 0.04565485558516955, 1727899902168559046, 
-0.034337520599365234, 0.49828994274139404, 0.014569782669936046, 1727899902198668802, 
0.2144169807434082, -0.33841222524642944, -0.032149056048105897, 1727899902228651268, 
-0.13699257373809814, -0.41934734582901, -0.019478484275269284, 1727899902258717180, 
