acc_x, acc_y, angular_z, stamp, 
-0.05692915017505782, 0.001960047149471948, 0.00022895803309876708, 11539000000, 
-0.06230193112931808, 0.03187281505102184, 0.0005656261595349082, 11545000000, 
-0.09403333456093296, -0.0010205178711854936, -0.00018931024216264897, 11550000000, 
-0.04886157509569163, -0.011539747801244803, -0.0001976188102071185, 11555000000, 
-0.05922038143061322, 0.010389051772554846, -0.0002142687779653941, 11560000000, 
0.0877557904512256, -0.03067526960381636, -0.03159299984897766, 11565000000, 
0.06956669292927872, -0.036496161167343874, -0.09374756639110847, 11570000000, 
0.01495089110794436, -0.08253647750719838, -0.1751575846604456, 11575000000, 
0.009690718759956262, 0.0796385435465658, -0.26856992856671613, 11580000000, 
-0.0935557548633982, -0.21768644057866646, -0.3675976039607911, 11585000000, 
-0.028935653838647712, 0.09123442945666317, -0.4642426841283915, 11591000000, 
1.1762102494681357, -0.22116205972825473, -0.5713344300920632, 11596000000, 
0.32216410234767506, -0.09769082031444498, -0.6491202676510314, 11601000000, 
-0.04183127917301141, -0.14734719469760582, -0.7128589503112619, 11606000000, 
-0.10868922568054028, -0.16287825375213075, -0.7582455099450502, 11611000000, 
0.0341062477350713, -0.08380645545604731, -0.7871502041067182, 11617000000, 
-0.16272338352487836, -0.2983303206818786, -0.7902073527711481, 11622000000, 
-0.04877268440221393, -0.1465401168478634, -0.7752118603712942, 11627000000, 
0.1565511591599511, -0.17098246272757894, -0.7451144813512346, 11632000000, 
-0.10640212087813947, -0.1648629474015754, -0.7009497321853587, 11637000000, 
-0.026313457703735724, -0.012922449886046797, -0.6469757866698688, 11642000000, 
-0.15283201668109253, -0.33407857989564843, -0.58816950371841, 11647000000, 
-0.08799873904909106, -0.10521109401342954, -0.5281970627725953, 11652000000, 
0.04755239547014488, 0.11872912511698584, -0.47132918489855974, 11657000000, 
-0.16478036710271005, -0.24439665137922992, -0.42140402080318007, 11662000000, 
0.16067530543814276, -0.04241835518326917, -0.38065970168963587, 11667000000, 
-0.0670269187623049, -0.034219578159877, -0.34672695460348046, 11673000000, 
-0.06990834646052829, -0.07026340800773176, -0.33152811269339316, 11678000000, 
-0.07071517343979211, -0.058031536291228626, -0.32795516017752263, 11683000000, 
-0.009787258740178242, -0.05807230158149959, -0.33665528737822165, 11688000000, 
-0.056866550580554426, -0.08205172909312272, -0.3505074645187074, 11693000000, 
0.08541692842265679, -0.08088349896830467, -0.3806517197961584, 11698000000, 
-0.00807888670258095, -0.07481755877235702, -0.4116993415618754, 11703000000, 
-0.04449189273049568, -0.14775419744740434, -0.42537513250544035, 11708000000, 
-0.030869053560420828, -0.09622299690343203, -0.46748302841719824, 11713000000, 
0.030758138894096045, -0.0350177035321251, -0.514601687838166, 11718000000, 
-0.1518355861872138, -0.3381591862202857, -0.5386153549566817, 11723000000, 
-0.037789690205969534, -0.11014865541401947, -0.572161781830691, 11729000000, 
0.2872198302582852, 0.11081228256499578, -0.5864819868053635, 11734000000, 
-0.1722271083824712, -0.3213625771426506, -0.5972372401358362, 11739000000, 
-0.0485840367072646, -0.08480829617079155, -0.6004748262534402, 11744000000, 
0.030537996830627807, 0.00027000475626429415, -0.5946194854444918, 11750000000, 
-0.22837375279119826, -0.3852838153714749, -0.5884773341867574, 11755000000, 
-0.05025080160606754, -0.08784062697683584, -0.5710092462759518, 11760000000, 
-0.021128488200812916, -0.06584853688916799, -0.5491006765039002, 11765000000, 
0.01595279096308979, -0.13552314985468103, -0.5247069529287864, 11771000000, 
-0.05329398846320945, -0.08577593120281947, -0.5085791565501854, 11776000000, 
-0.07563918935377835, -0.08874595581923547, -0.4931771109812445, 11781000000, 
-0.062032845915098375, -0.06878598638900989, -0.47243537779084765, 11786000000, 
-0.03879524124489638, -0.0890722304803895, -0.45904729567211666, 11791000000, 
-0.033305931867468025, -0.08339797030127691, -0.4506462540715163, 11796000000, 
0.10876382347519735, -0.09693601644785399, -0.4432479968292066, 11801000000, 
0.0030880840982140563, -0.11832701563200458, -0.44164176160623403, 11806000000, 
0.04556559095962051, -0.1277229853301543, -0.4446904077924984, 11811000000, 
-0.12397393264649866, -0.03450539323859312, -0.45090514518468655, 11816000000, 
-0.03703976637071088, -0.09278451775825255, -0.4596368577841723, 11821000000, 
-0.035456735453214774, -0.1090768122597493, -0.4620154452951752, 11826000000, 
-0.06438681861465366, -0.06586673864573994, -0.48497761209272455, 11832000000, 
0.13615983582941935, -0.13878724358991382, -0.4964317770908268, 11837000000, 
-0.02763494452532843, -0.10228560219975537, -0.5054758125870062, 11842000000, 
-0.04906857440961991, -0.1108956472485024, -0.5167158895063289, 11847000000, 
0.039309773222306256, -0.14680197791784014, -0.5244828368527883, 11852000000, 
-0.14048723269895463, -0.09275098551668003, -0.5305089308533327, 11857000000, 
-0.030777518038766716, -0.09968913167139472, -0.5336133124088143, 11862000000, 
-0.05522931093608657, -0.1281678524425559, -0.5346760832910663, 11867000000, 
0.016129980070402856, -0.14388674731780687, -0.5329035154411061, 11872000000, 
-0.13832764677019052, -0.09092290244308218, -0.5292771848492189, 11877000000, 
-0.059622282580924855, -0.09572794359989333, -0.5250867760801058, 11882000000, 
0.030862768422467737, -0.12489579226947137, -0.5174500312806498, 11887000000, 
-0.15729595729416293, -0.04864890540950022, -0.5110420275897961, 11892000000, 
-0.07002303005454308, -0.09746169884062063, -0.5042450422544755, 11897000000, 
0.2105953969853188, -0.18304634585785604, -0.4972881788703973, 11902000000, 
-0.10982259834542185, -0.024391579540778367, -0.4917659073761511, 11907000000, 
-0.037246016885726714, -0.1265273148385267, -0.4860009752195559, 11913000000, 
0.02490758785944236, -0.2279989422230978, -0.4821319356663315, 11918000000, 
-0.13012389403014332, 0.013446248562901058, -0.4807121565517027, 11923000000, 
-0.02596272232266816, -0.11068560494695351, -0.48003235680112455, 11928000000, 
0.03844815799549216, -0.23518379452358368, -0.48069173983629093, 11933000000, 
0.020632462695780424, -0.010067220991628358, -0.483016350106789, 11938000000, 
-0.04003781707008624, -0.10742160730921584, -0.4857768693607797, 11943000000, 
-0.01783554674189861, -0.13525537658605608, -0.4893963584363557, 11948000000, 
-0.06853300292956917, -0.06610616157890792, -0.49255177228921176, 11953000000, 
0.025205086761315956, -0.18972713649788583, -0.4976898595501692, 11958000000, 
-0.1013461055943965, -0.029602025693716068, -0.5011543966491571, 11963000000, 
-0.033474608361193176, -0.13017625988977755, -0.5050874488657376, 11968000000, 
0.027845220266609867, -0.22821584964308606, -0.5074166487409504, 11973000000, 
-0.17316616148795794, 0.03043038871177147, -0.5096991443100367, 11978000000, 
-0.031025793804412664, -0.1233115371038361, -0.5111576959737189, 11983000000, 
0.02348972139661332, -0.21717708037207617, -0.5121127496940501, 11988000000, 
-0.14184481721335612, -0.002489315413883827, -0.5116820174761929, 11993000000, 
-0.06425347045167047, -0.12633746879224902, -0.511040615063011, 11998000000, 
0.031770291587932785, -0.10146449992958372, -0.5077970371588832, 12006000000, 
-0.05221294245716528, -0.1259482473279602, -0.5057061202351489, 12011000000, 
0.05427683741024411, -0.2394500800206735, -0.5030330913599612, 12016000000, 
-0.15323923802706413, 0.07194884680019054, -0.5011159962259876, 12021000000, 
-0.07363891277002219, -0.07995052853529247, -0.49891487329111106, 12026000000, 
0.018985046595571882, -0.19670647597989424, -0.4967289418907104, 12031000000, 
-0.17800537577412465, 0.07974502841364403, -0.49571613226028516, 12036000000, 
0.10755847303098826, -0.11641263702977302, -0.4942066246456179, 12041000000, 
0.032502344193976025, -0.2627904308114625, -0.4937651918357406, 12046000000, 
-0.1643227294782557, 0.10257862961064512, -0.4934278220639475, 12051000000, 
-0.06058409905554152, -0.12449961106331463, -0.49391062941505426, 12056000000, 
0.07043405256522171, -0.2995003254840836, -0.4943569906659261, 12061000000, 
-0.11188347740855456, -0.0007209279548635802, -0.4952648367255287, 12066000000, 
-0.04886670865701506, -0.1023558497000018, -0.49643684817331196, 12071000000, 
-0.08064836873929353, -0.11501551823830948, -0.49711173807909376, 12076000000, 
0.03746289337307014, -0.1006375306843521, -0.4992279337522406, 12081000000, 
-0.04162810668985345, -0.1390034255826632, -0.5005017150822879, 12086000000, 
-0.0035076761503639586, -0.2399423956151821, -0.5015938866819022, 12091000000, 
-0.14558169956318362, 0.014279672619342005, -0.5029423732420841, 12097000000, 
-0.016256483821981395, -0.14564815064599163, -0.5035941076650748, 12102000000, 
-0.08639676970193103, -0.11660232490188674, -0.5041480781840785, 12110000000, 
-0.017712701678441235, -0.12919689888399952, -0.5041776083876968, 12115000000, 
0.037800916839509674, -0.33958843942348005, -0.503386947969718, 12120000000, 
-0.1488635860266217, 0.048824353172166574, -0.5028238136216401, 12125000000, 
0.026786629914187864, -0.258263059462035, -0.5029708686252418, 12130000000, 
-0.11429351895780478, 0.03545300577155438, -0.5014906635573343, 12135000000, 
-0.05340978124671489, -0.12510521008775113, -0.501280748994508, 12140000000, 
0.42823300721603735, -0.175235823876854, -0.5006234221269358, 12145000000, 
-0.05967804914327217, -0.12879456848764548, -0.4991595451123502, 12150000000, 
-0.058440842244841425, -0.12637705471316027, -0.49918273328467866, 12155000000, 
-0.021122223499535464, -0.11350566129165303, -0.4980947166113458, 12160000000, 
-0.03177353681229615, -0.1076183273455776, -0.497955759073778, 12166000000, 
0.05342158097039181, -0.2850925963712059, -0.4980613845547894, 12171000000, 
0.07547188953431341, 0.043771927748386896, -0.49785638171519714, 12176000000, 
-0.013639968893450899, -0.146977091075897, -0.4981588828729897, 12181000000, 
0.027212187976406305, -0.2666753733753845, -0.4979921716961234, 12186000000, 
-0.08243667961990436, -0.0075294003697258674, -0.49895184556912964, 12191000000, 
-0.06377112269685369, -0.1237664963648348, -0.4994424894577853, 12196000000, 
-0.0594411208535853, -0.1012671777025912, -0.49981931305459604, 12201000000, 
-0.07578974696443871, -0.12397463358878393, -0.49998981478258064, 12207000000, 
0.006641797556928857, -0.22112244197305134, -0.5008754733051414, 12212000000, 
-0.15527663424479604, 0.06643562867505033, -0.5007121143748998, 12217000000, 
-0.03990645084847878, -0.14195553299339503, -0.5009935621100376, 12222000000, 
-0.0125400154895566, -0.22301311927977807, -0.5013797821164654, 12227000000, 
-0.1368473565744183, 0.032259590187994555, -0.5015079146017319, 12232000000, 
-0.0686458168108508, -0.13160340940639925, -0.5016599057877259, 12237000000, 
-0.022949525726747723, -0.2569665040924504, -0.5016683763775207, 12242000000, 
0.06904382912413062, -0.04819027864315638, -0.5012147429659014, 12247000000, 
-0.03275003134510797, -0.1578482846953808, -0.5011122802904743, 12252000000, 
-0.0071486611343921855, -0.20921643165989373, -0.5009912020392847, 12257000000, 
-0.11669520499749572, 0.020734481521906826, -0.5004315475865996, 12262000000, 
-0.04970584716967193, -0.160331342541593, -0.5003071735882526, 12267000000, 
0.0321631070168121, -0.22955344696561022, -0.49997631384466446, 12273000000, 
0.09603267542166874, -0.01761353235263874, -0.49951801058221745, 12278000000, 
-0.0627797204764351, -0.12213575743502117, -0.49978031782747767, 12283000000, 
-0.058206912429318344, -0.13672578966887255, -0.4995119343472783, 12288000000, 
-0.04862402534299781, -0.15843293422119314, -0.49918685085290204, 12293000000, 
-0.08615018886586646, -0.1386980845430899, -0.4991449707529381, 12298000000, 
-0.05583377534014242, -0.15443487179855334, -0.4998752513515387, 12303000000, 
0.024252544531810916, -0.33758687664303916, -0.49905819361689574, 12308000000, 
-0.10659249086158001, 0.03287153219545224, -0.49992455485424125, 12313000000, 
-0.05034717002993154, -0.16547767016503057, -0.49969488654785077, 12318000000, 
-0.0070720277979702635, -0.25206136962802805, -0.5002495616839336, 12323000000, 
-0.11937338394115497, 0.04892326495422243, -0.5000278719929363, 12328000000, 
-0.029584683185603467, -0.12550473189157793, -0.5001943836843075, 12333000000, 
-0.05377053113903686, -0.14674058446181515, -0.5006669492518326, 12338000000, 
-0.0548428343081481, -0.1424461066695916, -0.500383441321827, 12343000000, 
0.16610090287898066, -0.11644130342686693, -0.5003763298576794, 12348000000, 
-0.046947312895244, -0.16078629879667772, -0.5008691353157612, 12353000000, 
-0.01064007227237114, -0.2769998450484934, -0.5007623761527685, 12358000000, 
-0.08160131029862745, 0.00890016338981184, -0.5007641963913737, 12363000000, 
-0.053935075057096375, -0.1276437917144654, -0.5009372060088422, 12368000000, 
-0.058961160961879845, -0.12055751361499253, -0.5004656905478121, 12373000000, 
-0.016718855288357877, -0.12338529060901587, -0.5004523925670451, 12378000000, 
0.14177353593441985, -0.1479130701683701, -0.5008974684893762, 12383000000, 
-0.06324274175142607, -0.11448239041301765, -0.49971608598728395, 12388000000, 
-0.02878498922730991, -0.11467498783588781, -0.5005223313239336, 12393000000, 
-0.012479222068180133, -0.2434069955700273, -0.49994102619206343, 12399000000, 
-0.10544769373583754, -0.0005260390221849768, -0.49984785622191436, 12404000000, 
-0.04232014207574621, -0.1524197449797693, -0.4996037241887416, 12409000000, 
0.18593941872987396, -0.27431981195406047, -0.5000849308108711, 12414000000, 
-0.12127099453161613, -0.00403315490891501, -0.4995645820879946, 12419000000, 
-0.0378535744937714, -0.15290415939303426, -0.5000865041869331, 12424000000, 
0.0029544998165573107, -0.24282717786370958, -0.49985068514481795, 12429000000, 
-0.06543018706777873, -0.00595184363571136, -0.49997350631927256, 12436000000, 
-0.01653356795070749, -0.14386899664830533, -0.4998846577418706, 12442000000, 
0.13600926721381923, -0.26686219855541543, -0.5000177270750232, 12447000000, 
-0.15523131669994641, 0.11627460617036332, -0.5001918565137317, 12452000000, 
-0.03733832894163236, -0.14585270177274295, -0.4997328055692981, 12457000000, 
-0.03956236817532019, -0.21782921794404705, -0.4999009690116993, 12462000000, 
-0.07818704319902368, -0.010368121100816266, -0.5001151796976905, 12467000000, 
-0.039494173614233304, -0.15813372067366938, -0.5006088997405094, 12472000000, 
-0.011987819925617649, -0.28154818908647683, -0.5004045424686606, 12477000000, 
0.1374678263588638, 0.03290233028862199, -0.4999908792760471, 12483000000, 
-0.04196811698995315, -0.14271468356875644, -0.5006591092648045, 12488000000, 
-0.004941720537205921, -0.27120360668909793, -0.5006015561560194, 12493000000, 
-0.10962333370082021, -0.026078449589556765, -0.5001516522713925, 12498000000, 
-0.04710446617636023, -0.14112522251940135, -0.5003891479728071, 12503000000, 
-0.022455176836059246, -0.23362346169111847, -0.5003755395687692, 12508000000, 
-0.09598203169864321, 0.022439837759956446, -0.5001314852386675, 12513000000, 
0.1271140456616776, -0.1410571278880228, -0.5004161383524962, 12518000000, 
-0.00348040982701342, -0.2924943401089437, -0.500457036730396, 12523000000, 
-0.062324490034813856, 0.005525173010035897, -0.4999398598654346, 12528000000, 
-0.051978779620945804, -0.14051916080434587, -0.49989156777965754, 12533000000, 
-0.010384541054661117, -0.24541068111900965, -0.5002019096909177, 12538000000, 
-0.06733528791056731, 0.005555382835851966, -0.49970562805623603, 12543000000, 
-0.0669450422065993, -0.17448327347509385, -0.5002368380272757, 12550000000, 
0.09356833380898348, -0.1639355601134434, -0.49990182819829876, 12556000000, 
-0.06860231452825803, -0.10785018510547721, -0.5000922686529684, 12560000000, 
-0.0708470756598331, -0.17007819076640934, -0.5002232942749747, 12565000000, 
-0.0010885587183186753, -0.26536432681677624, -0.4998450886442208, 12570000000, 
-0.09176173644080743, 0.0041763884761154245, -0.5002970130981985, 12575000000, 
-0.03211180483471146, -0.16894459949001608, -0.5004446762959188, 12580000000, 
-0.013155317954251417, -0.28377878231274517, -0.49992968492673373, 12585000000, 
-0.11102121282803176, 0.0529213761785568, -0.5004267871998361, 12590000000, 
-0.04339470984633846, -0.2547457491174065, -0.5001768686244744, 12596000000, 
-0.0885151213961507, -0.012094523331457467, -0.5001047714716167, 12601000000, 
-0.0664302664255311, -0.15009378816627655, -0.500354240557239, 12606000000, 
-0.042324110393113755, -0.2528146650753444, -0.5001360681748452, 12611000000, 
0.06243883056611545, -0.021726194961505484, -0.4999761046304706, 12617000000, 
-0.06574021410563473, -0.1643918628242995, -0.5001488564233763, 12622000000, 
-0.04966871891023457, -0.2838313542296139, -0.49982356034458547, 12628000000, 
-0.07699257640905581, -0.05624893131750231, -0.4999997595270147, 12634000000, 
0.0020646657208813132, -0.2648853471520224, -0.5001329398841754, 12639000000, 
-0.10532585722376639, -0.012097189744464651, -0.5001990120351991, 12646000000, 
0.09647486026833434, -0.15478090294554503, -0.4999868475450554, 12651000000, 
-0.011458034682605974, -0.327681129140295, -0.4999889293220067, 12656000000, 
-0.06475803137029218, -0.016594833019755298, -0.5002257031263636, 12661000000, 
-0.060999607717702936, -0.19135768276322943, -0.50014753454702, 12666000000, 
-0.06511808749739698, -0.15756483669015348, -0.5001366309423055, 12671000000, 
-0.0448741592174575, -0.14378051141275738, -0.5002444636021224, 12676000000, 
-0.017748219742400206, -0.2538619281719237, -0.5000706916508424, 12681000000, 
0.104762707389429, -0.048902629552541446, -0.5000274044159796, 12687000000, 
-0.06147097743938749, -0.16962319459919495, -0.5001768325157886, 12692000000, 
-0.010965622358978458, -0.2765114364134709, -0.49975202515084804, 12697000000, 
-0.047135850468197474, 0.008085287745490688, -0.5000250791150513, 12702000000, 
-0.0712695789337177, -0.16099325084860952, -0.500307908270058, 12707000000, 
0.004252376779217658, -0.2834859073043019, -0.5000767069372702, 12712000000, 
-0.0861253321675903, 0.030092086709317338, -0.5002893182724393, 12717000000, 
-0.04284520960643055, -0.1718320201373637, -0.5007668958794796, 12722000000, 
-0.030912848037289872, -0.16654668147393126, -0.5001063482168684, 12727000000, 
-0.01967195588128314, -0.12267725539262363, -0.5002588180237125, 12732000000, 
-0.06580301427126709, -0.17839687684411817, -0.5002869167976339, 12737000000, 
-0.07922077295930477, -0.17018430647793353, -0.5002243351595185, 12742000000, 
-0.08714890045991053, -0.1714619292477433, -0.5002928643288941, 12747000000, 
0.12873316843921995, -0.26529881053912197, -0.5005902690614835, 12753000000, 
-0.055430755677207635, -0.05038378171364528, -0.5000049072755334, 12758000000, 
-0.05147662353301491, -0.18134072136241172, -0.5003850174819019, 12763000000, 
-0.05995131282782823, -0.19425512364895148, -0.5004038462684995, 12768000000, 
-0.046945797638933556, -0.21336728194393087, -0.5003674931058834, 12773000000, 
-0.08097118411306867, -0.15745278635443916, -0.5004747250851959, 12778000000, 
-0.032702488817919456, -0.3032820103158481, -0.4999616608471473, 12783000000, 
0.15031944357909804, 0.051770931225446355, -0.49998565688845686, 12789000000, 
-0.02440628079546608, -0.16830623219357516, -0.5004102895921759, 12794000000, 
-0.04772862575031313, -0.3134404092817494, -0.4999304076639602, 12799000000, 
-0.09783983787045725, -0.013263142393886863, -0.5000719361313816, 12804000000, 
-0.041352369671353376, -0.19634317257724437, -0.5003143898671658, 12809000000, 
-0.0245928957058728, -0.32354344291488446, -0.5000316954014105, 12814000000, 
-0.09959377857186845, -0.005785396158825127, -0.5000589951741522, 12819000000, 
0.23394722382136715, -0.17265193082933827, -0.50042241716752, 12824000000, 
-0.04401331046096915, -0.2891467511223636, -0.5000422631228366, 12830000000, 
-0.101830879138308, 0.04029818607845047, -0.5001724050657639, 12835000000, 
-0.02538030654424433, -0.19085929388951847, -0.5006115416437028, 12841000000, 
-0.047020353583769964, -0.34144010059839053, -0.5001519385263125, 12846000000, 
-0.0916909152329258, -0.008015239420887266, -0.500435536983705, 12851000000, 
-0.0655981864688141, -0.1723228018151408, -0.5006869574777607, 12856000000, 
-0.0350097238782268, -0.3923629971522119, -0.4999474146130649, 12862000000, 
-0.1079156173230433, -0.07034205554396851, -0.5000862248114443, 12868000000, 
-0.05643446381906759, -0.1742468507068254, -0.500384037908581, 12873000000, 
-0.18516307191664771, -0.3224287910915578, -0.5012490661943901, 12879000000, 
-0.1879411110575217, 0.0400549712236121, -0.5043815404574419, 12884000000, 
0.02172230863575624, -0.21078047430892427, -0.5083480981258519, 12889000000, 
-0.10240309578247075, -0.1647915327771015, -0.5117285688797873, 12894000000, 
-0.09420229069897249, -0.2841871516794257, -0.5198943457098876, 12900000000, 
0.1819056046349522, -0.052365258921667386, -0.5263515181489538, 12905000000, 
-0.2335350057205987, -0.16842632426909512, -0.5328763984687609, 12914000000, 
-0.10963379374938134, -0.2070607919366593, -0.537860994003667, 12919000000, 
0.20952117895097452, -0.36065056354973113, -0.540337465980995, 12924000000, 
0.048861424051859795, -0.06767446294280176, -0.5435724803685857, 12929000000, 
-0.04735548510928641, -0.19808760269511477, -0.5442136914760387, 12934000000, 
0.0037377977019268233, -0.31864450381545695, -0.5441819083265034, 12939000000, 
-0.05777986275100715, 0.030108080348819958, -0.5432965941963642, 12945000000, 
-0.026529559291297414, -0.24067604358394498, -0.5417549826922942, 12950000000, 
0.01972378687504762, -0.34105992055242235, -0.5396340839315833, 12955000000, 
0.1284624957475285, 0.04384827680985127, -0.5372231904916147, 12960000000, 
-0.04830155638039528, -0.2137963916840407, -0.5343832977345339, 12965000000, 
0.0361004936181412, -0.36446587182128526, -0.5322396868181688, 12970000000, 
-0.14389996082849169, -0.028223582650067917, -0.5294797594070058, 12975000000, 
-0.03448965501003948, -0.1878935370756644, -0.527216288492326, 12980000000, 
-0.028629246529284717, -0.3418844103623495, -0.5247729705696442, 12985000000, 
0.060296770898978946, -0.04600794868120824, -0.5232810782620819, 12991000000, 
-0.04135545395729759, -0.18377439552950445, -0.5221600140395044, 12996000000, 
-0.06525373404333752, -0.32908007577100423, -0.5219355304430723, 13002000000, 
-0.08360158181763888, -0.0907239954729676, -0.5216434809738223, 13007000000, 
-0.0610172047924247, -0.308866151463975, -0.5222463594958993, 13012000000, 
-0.04938142950369277, -0.05667323343188836, -0.5224562245030697, 13017000000, 
-0.020693237801052644, -0.19095417867278963, -0.5225749623223425, 13022000000, 
0.09365315914639748, -0.19086853246699673, -0.523675035386899, 13027000000, 
-0.04564421194922381, -0.4004977378726488, -0.5240212882229285, 13032000000, 
-0.027658676453802048, -0.03735228408172219, -0.5241932729916204, 13037000000, 
-0.041939296461710344, -0.2397803238062493, -0.525634561190975, 13044000000, 
0.029937406798385052, -0.02236582357920876, -0.526240737341039, 13049000000, 
-0.08873468570936788, -0.15037447944165144, -0.5270639122084633, 13055000000, 
0.2064810209121397, -0.32325652854308595, -0.526961336018547, 13060000000, 
-0.07526900300047679, -0.03344358550393944, -0.5270992046709236, 13065000000, 
-0.06721707526848128, -0.35055023419154263, -0.5270618068403098, 13070000000, 
-0.03263287722397476, -0.1080773025845941, -0.5268439310188131, 13076000000, 
-0.09148871271134859, -0.19445266701417324, -0.5266957243537831, 13081000000, 
-0.06453735738477634, -0.34799325238653483, -0.5260821412424525, 13086000000, 
-0.03501280599040065, -0.04112780195090546, -0.5255022237821575, 13091000000, 
0.17786323926977246, -0.32612668727944416, -0.5255647896470161, 13096000000, 
-0.05174431561528599, -0.10122830851289989, -0.5252577676713707, 13101000000, 
-0.06737192766384048, -0.14871994108099493, -0.5245965454696299, 13106000000, 
-0.049078005137030326, -0.3554202513181287, -0.5239264330565399, 13111000000, 
0.024346447544282283, 0.012484445582426423, -0.52445341121314, 13117000000, 
-0.054725329060533956, -0.25570083437109314, -0.5242827272395636, 13122000000, 
0.3252040821401364, -0.058980729107934685, -0.5235464631006678, 13127000000, 
-0.05162444718121044, -0.17634710595139033, -0.5238843363395994, 13134000000, 
-0.06915379853234246, -0.3200594951072715, -0.5237690981046143, 13139000000, 
0.014916252532766145, -0.02243281519776213, -0.5242245380056652, 13144000000, 
-0.0996102079284595, -0.18506957252964878, -0.5236205505019114, 13151000000, 
-0.04939591312899551, -0.2004744641124001, -0.5236695519967268, 13156000000, 
0.10857534911299509, -0.30848469819053403, -0.5238060891155205, 13161000000, 
-0.037530503670223, -0.01669667151248959, -0.5239563109047144, 13166000000, 
-0.06693771933716645, -0.23635050247922063, -0.5241570846434578, 13171000000, 
-0.04431641168881566, -0.3415235921631853, -0.5243720554249972, 13176000000, 
0.01069823430169566, -0.035378756354737854, -0.5242725741148377, 13181000000, 
-0.07380337478082129, -0.13129647827543864, -0.5238491313243012, 13186000000, 
-0.0894810191977045, -0.3589368437341903, -0.5241925585049597, 13191000000, 
0.16571731011261792, -0.23992726046604335, -0.5240494578837782, 13196000000, 
-0.04866252926589719, 0.00873704766790628, -0.5243689921672783, 13201000000, 
-0.08866009577389179, -0.30566403896059885, -0.5241567786591752, 13206000000, 
-0.04402950302572562, 0.028077388572416585, -0.5244144573993896, 13211000000, 
-0.06304725268976988, -0.1700348805810695, -0.5244228045261292, 13216000000, 
-0.06673565782954573, -0.37508738464762736, -0.5248228177444052, 13221000000, 
-0.08075500522376505, -0.2231916403197872, -0.5250153186819247, 13226000000, 
0.10262779101354544, -0.10054520187395163, -0.5249268279474184, 13231000000, 
-0.05714825303498303, -0.36723747042912286, -0.5250495748118373, 13236000000, 
0.033102107091538414, -0.012021196755568831, -0.5253246887453638, 13241000000, 
-0.12994736603193383, -0.16817797696893985, -0.5248581880067648, 13246000000, 
-0.11895877058940804, -0.1653856407918247, -0.5251459627202933, 13252000000, 
0.03589975406472579, -0.24544255767037537, -0.5244949975778672, 13257000000, 
0.04662746993874704, -0.16216948745051615, -0.5246685479703398, 13262000000, 
-0.04620018955372983, -0.14236479560316462, -0.5246156556182012, 13267000000, 
0.03868002068987753, -0.4433912013403211, -0.524438759868879, 13272000000, 
-0.10213340061285138, 0.03404256382024938, -0.524249907715599, 13277000000, 
-0.11902749959382272, -0.15466818357124842, -0.5241706748587475, 13282000000, 
-0.07226615943718104, -0.37225559707791883, -0.524365861316478, 13288000000, 
0.01411424747765733, -0.03334480514530206, -0.5245482132054663, 13293000000, 
0.05727697412234506, -0.1290401400459861, -0.5249286503052493, 13299000000, 
-0.022556441933688765, -0.2308522507471993, -0.5254076200242545, 13304000000, 
-0.138522123633181, -0.16457032659882176, -0.5250484049319432, 13309000000, 
-0.09984092194950159, -0.13367876374458873, -0.5256765157310884, 13315000000, 
0.0013131878261668228, -0.35773232528178733, -0.5262374556588643, 13320000000, 
-0.053157709421764086, -0.08616904565473477, -0.525889936326593, 13327000000, 
0.08046811332262221, -0.2549804927660936, -0.5267496256442149, 13338000000, 
-0.05696102722734355, -0.07784204628698793, -0.5260936158379262, 13343000000, 
-0.07992218549265634, -0.1190941285890928, -0.5256056547030895, 13348000000, 
-0.017473749653823874, -0.3564635931531418, -0.526137709802604, 13353000000, 
-0.11446456380290436, -0.09786904188826703, -0.5259289681918654, 13361000000, 
0.34086697968494006, -0.08860436483214987, -0.5264861991717531, 13366000000, 
-0.045503179005918826, -0.247961979347323, -0.5270066850280453, 13371000000, 
0.10709983531746034, -0.25614729406653247, -0.5267786817507802, 13376000000, 
0.01760067355960398, -0.35488392001598373, -0.523430699026147, 13381000000, 
-0.09901659145017724, 0.017849907914014418, -0.5205483792521637, 13387000000, 
-0.02061852644531137, -0.24336127743602834, -0.5179311846454846, 13394000000, 
0.07673634448978292, -0.19380466952821473, -0.5097618777193113, 13399000000, 
0.024708787566252256, -0.3537223096915576, -0.5032589118907809, 13404000000, 
-0.08213516480581198, 0.027892931646210706, -0.49823005839889634, 13410000000, 
-0.059192550077222544, -0.2059228085269438, -0.4940516582033447, 13415000000, 
-0.0356428647928752, -0.30176422174615425, -0.48966739209465926, 13420000000, 
-0.13749929887186393, -0.020396560509227488, -0.48685699291632295, 13426000000, 
0.005218210076703443, -0.3818933623626478, -0.4853935421895853, 13431000000, 
0.05576473934393365, 0.03350490123703452, -0.48511579191920734, 13436000000, 
-0.05774480304051398, -0.20221554875097347, -0.4861804801602599, 13441000000, 
-0.04526687163061958, -0.3393276444514263, -0.4868554802082882, 13446000000, 
-0.11289180692904406, 0.010365091397470542, -0.49016100941518864, 13451000000, 
-0.05932597654615281, -0.18266013087773594, -0.49301428109706746, 13456000000, 
0.04468143620002192, -0.3658483175861206, -0.49484951559197765, 13461000000, 
0.036925138026594403, -0.011684221913288346, -0.49891762255475985, 13466000000, 
0.027343202762983077, -0.36019361977701886, -0.5018634803946211, 13471000000, 
-0.14016409352050296, 0.0038398623300701477, -0.5039922199870255, 13476000000, 
-0.04847520887731866, -0.22482605173749193, -0.5066164819856178, 13481000000, 
0.02214396889811819, -0.37466917456756105, -0.5081746717666442, 13486000000, 
-0.13897646118854623, 0.06691368652303384, -0.5087701416523257, 13491000000, 
-0.08212597725910892, -0.22633833966604594, -0.5097511629643567, 13496000000, 
0.1937593677284564, -0.3380329148764401, -0.5086849840939947, 13502000000, 
-0.18039110559670812, 0.02268097996011474, -0.5084671017667675, 13507000000, 
-0.09444048160420636, -0.1826568125060871, -0.5069175122674217, 13512000000, 
0.007221148054324354, -0.3354349886046669, -0.5048809567024375, 13517000000, 
-0.09917982327534917, -0.0635625118443754, -0.5031279643269889, 13526000000, 
0.02405462570087632, -0.2875490858696454, -0.5001657453549995, 13531000000, 
0.03514586267850553, -0.023996285706446904, -0.4981948272405904, 13536000000, 
0.018510007049475797, -0.33921562816149886, -0.49732543456383893, 13541000000, 
-0.12234280536063581, -0.028013653249582233, -0.4957906245242448, 13546000000, 
-0.05371669147728206, -0.2192616319683495, -0.49554705728417897, 13551000000, 
0.0046776900992109615, -0.2581751792664238, -0.49539941422445627, 13556000000, 
-0.10333964520103073, -0.11025740152651956, -0.4957204682663381, 13566000000, 
0.25012764082553873, -0.3413549427000487, -0.4962068416276158, 13571000000, 
-0.13510823376644474, -0.0342677597523966, -0.49708014462320904, 13576000000, 
-0.06410043934859101, -0.21663371634892048, -0.49831358606556964, 13581000000, 
-0.07047347856339133, -0.15587153575399884, -0.5000987060577882, 13591000000, 
-0.059686664756018894, -0.19762822439553165, -0.5015501741591823, 13596000000, 
0.09231250032996917, -0.4415939018112367, -0.5017168627207984, 13601000000, 
-0.12242958489489433, -0.059846118441567515, -0.5031384862225546, 13606000000, 
-0.05022153103967231, -0.21324011780810587, -0.5031456382171264, 13611000000, 
0.06000974313019017, -0.36881031059235997, -0.5036708867016173, 13617000000, 
-0.12226941290502316, -0.08563494646822106, -0.5034578142037953, 13622000000, 
-0.05685792292226807, -0.19724978550034564, -0.5034720147902513, 13627000000, 
-0.07054743714533541, -0.18771484067199795, -0.5030417866894095, 13632000000, 
0.16063766003073493, -0.2126730099900173, -0.502438134442694, 13637000000, 
-0.05099637376882017, -0.18542476761607876, -0.5017522749289829, 13642000000, 
-0.041619123520440594, -0.1974907395023212, -0.5011477947108961, 13647000000, 
-0.05889071344314563, -0.19050479629029782, -0.5004861701498702, 13652000000, 
-0.05191584443725009, -0.21060020209219102, -0.49987320441762284, 13657000000, 
0.0337970409575396, -0.31159197793185306, -0.4994216112131455, 13662000000, 
-0.13090116764082396, -0.054518555217652774, -0.4988187029643531, 13667000000, 
0.2014767649119828, -0.20575757832459335, -0.4987601216162807, 13672000000, 
0.024470040795954513, -0.2800458965466434, -0.49837030231012097, 13677000000, 
-0.1693166647756082, -0.04884381984757552, -0.4981602867980981, 13682000000, 
-0.039672213205098145, -0.21020434673948785, -0.4987783259130036, 13687000000, 
-0.037152912303735686, -0.166387334190701, -0.4988203493132943, 13692000000, 
0.029215773926068066, -0.3085332772897229, -0.4987478169227047, 13697000000, 
-0.13343596825328738, -0.06259062320997161, -0.4989881008194864, 13702000000, 
0.2262395180460997, -0.186042589623577, -0.5000969696029902, 13707000000, 
-0.049790630699875923, -0.20112744116577333, -0.5006765852197501, 13713000000, 
-0.07153247314391002, -0.14461033898983505, -0.5006732626397306, 13718000000, 
-0.04716472070017042, -0.19376136150779785, -0.5011816030303966, 13723000000, 
-0.057932545916557596, -0.17575296182190212, -0.5009471389077826, 13728000000, 
-0.03809635513110597, -0.21123259990846607, -0.5019719962016461, 13733000000, 
-0.20347493040726106, -0.14618237020360905, -0.5025490195032969, 13738000000, 
0.06661799298152428, -0.17587645699776688, -0.5044497147256036, 13743000000, 
0.08457108005309223, -0.1908961239581692, -0.5060894197372813, 13748000000, 
-0.07532854963807697, -0.1858071844023926, -0.5070955974286412, 13753000000, 
-0.19175416008805476, -0.1783080319174376, -0.5106935478573991, 13758000000, 
-0.14423133228342527, -0.17063536220626851, -0.5153134035316853, 13763000000, 
-0.0845202377603323, -0.08805688669798437, -0.5211859781706701, 13768000000, 
-0.06574394158256865, -0.13019223549665165, -0.5248972005334239, 13773000000, 
-0.09078569066447914, -0.1654809492422736, -0.5310902791149741, 13778000000, 
-0.055657634066908095, -0.17999215308956035, -0.536870194551163, 13783000000, 
-0.039283298949249396, -0.18933826646279545, -0.5411245612406512, 13788000000, 
0.19934708277132268, -0.30129780094787234, -0.5445641342413525, 13793000000, 
0.11336186297387886, -0.2518955970000093, -0.5452494847515756, 13799000000, 
-0.18644718877782804, -0.19318229865985115, -0.5429595800713273, 13804000000, 
0.1027146634119757, -0.10464100944751553, -0.5394646757139238, 13809000000, 
0.10500957600186936, -0.27779381056587643, -0.5354228028299817, 13814000000, 
0.02028781710932834, -0.2176849987811797, -0.5295742321239915, 13819000000, 
-0.13743525776538806, -0.1424004679170658, -0.5220685768213683, 13825000000, 
0.011316721036326742, -0.22039494201178703, -0.5163681088763739, 13831000000, 
0.008475356318285063, -0.3083916809701282, -0.5088298684107602, 13836000000, 
-0.00978265825275662, -0.009330798259165635, -0.5043226388353267, 13841000000, 
0.051548215453913034, -0.2328945553431277, -0.49842684533656567, 13846000000, 
-0.025149828072009245, -0.3382775859162639, -0.4951974254548919, 13851000000, 
-0.14525524065597265, -0.07405527298328086, -0.49147932746967227, 13856000000, 
0.1413668735567261, -0.3028286491822001, -0.48898687501779853, 13861000000, 
-0.202303360231517, -0.024790392800603536, -0.48788870664096046, 13867000000, 
-0.05395523335858171, -0.2245395523731637, -0.4877943524544204, 13872000000, 
0.06131078136515279, -0.2782852562657973, -0.48792289565425034, 13878000000, 
-0.24374794129836802, -0.07253681804434395, -0.48959263298852806, 13883000000, 
0.11495009541803422, -0.3203508702360826, -0.4915837427296885, 13888000000, 
-0.2673268339051608, -0.028692124610492708, -0.4938480864123385, 13893000000, 
0.09581742549179514, -0.3223231758725452, -0.4968511540249145, 13898000000, 
-0.20132852053816624, -0.07485593377506602, -0.4993490384811962, 13903000000, 
0.0573575795341574, -0.1860355697672195, -0.5016098004577779, 13908000000, 
0.1630794011498685, -0.3111804920106646, -0.5035065383861365, 13913000000, 
-0.2446635184811883, -0.066774478965151, -0.5055699618619913, 13918000000, 
-0.029594175940195457, -0.2029040814592908, -0.5069721245853481, 13923000000, 
0.07297232093662163, -0.2623631888349334, -0.5076236921901743, 13929000000, 
-0.2129448101730512, -0.07833029709814758, -0.5076858268578471, 13934000000, 
0.11686839073691903, -0.2989575246769261, -0.5071377761546404, 13939000000, 
-0.25702848067020023, -0.08435263650131497, -0.5063357684893007, 13944000000, 
-0.07163781753311545, -0.230892416411911, -0.5054588067283764, 13950000000, 
0.001855292902439496, -0.23328228076384533, -0.5043294703595065, 13956000000, 
-0.13346980128233032, -0.09889770487422929, -0.5038530353549899, 13961000000, 
0.1557898348228801, -0.34289500368777825, -0.5037839399517335, 13966000000, 
-0.2387257418838611, -0.045198740783266564, -0.503957344184607, 13971000000, 
0.007865865550931777, -0.24294890436151959, -0.5046769037731907, 13976000000, 
0.21004311221620567, -0.2189436028179493, -0.505085912953435, 13981000000, 
-0.2135671708562809, -0.08819417925908428, -0.505938808904339, 13986000000, 
-0.0760247855602455, -0.2760451699421496, -0.507207410803085, 13991000000, 
-0.010096305877695003, -0.17194460445478368, -0.5088675549686003, 13996000000, 
-0.08342316911902281, -0.18569165067082563, -0.5103908538760253, 14001000000, 
-0.15901530046628098, -0.16351950302365614, -0.5120338478380533, 14006000000, 
0.1458222334158386, -0.2090412785990827, -0.5138395186466189, 14011000000, 
-0.029863981771961513, -0.19094042222088498, -0.5164546083677297, 14018000000, 
-0.034373169393397046, -0.15074254522150737, -0.5183907329032247, 14023000000, 
-0.07781199785616778, -0.1576566834365369, -0.5204436603942303, 14028000000, 
-0.24027960181033484, -0.21477406267786864, -0.5220923608178364, 14033000000, 
0.053153510245047365, -0.16046266707657628, -0.5253136039405668, 14038000000, 
-0.06118758443137532, -0.1858944526589912, -0.5270733122099084, 14043000000, 
0.048503516529988744, -0.1459335157248245, -0.5292159456291432, 14048000000, 
-0.08877810449619852, -0.23747833723209844, -0.5313088438773743, 14053000000, 
-0.07008472084480992, -0.2581899001954574, -0.532836193902517, 14058000000, 
0.06538924921038422, -0.19983517864011296, -0.5341663309801378, 14063000000, 
-0.130586728121931, -0.2165298750560827, -0.5350193410022605, 14068000000, 
-0.08861843588198177, -0.14542844592354112, -0.5359401160061612, 14073000000, 
0.06158764699564721, -0.23759545927027045, -0.5358610038864747, 14078000000, 
-0.16668822217954243, -0.2693169539750582, -0.5358306402382311, 14083000000, 
-0.04212361928848644, -0.09675696343126426, -0.5358470497225231, 14088000000, 
0.02583188871422436, -0.2342377723669446, -0.5346099775153405, 14093000000, 
-0.18054108629631216, -0.22301231865798524, -0.5339437178783963, 14098000000, 
-0.04667727607146968, -0.11256508281582306, -0.5326453659694765, 14103000000, 
0.06266920200655057, -0.29741842796132123, -0.5314939845549775, 14108000000, 
0.007083249688996292, -0.2084299868931549, -0.530416000933504, 14113000000, 
-0.061640450787975976, -0.14840671247470505, -0.5297938884170055, 14118000000, 
-0.040289866474229497, -0.24573033420919072, -0.5283682541242132, 14123000000, 
-0.08025395937355355, -0.21220055766579618, -0.5280156488466917, 14128000000, 
-0.06607655018699936, -0.10012638325591061, -0.5276917264254374, 14133000000, 
-0.019392415748466833, -0.25935536085459854, -0.5272210443192807, 14138000000, 
-0.14032294327895573, -0.2613076803281994, -0.5273030758301558, 14143000000, 
-0.012102101328592373, -0.11295048720300999, -0.5281982229121931, 14149000000, 
-0.05372358816501553, -0.2362050533077638, -0.5284208044085907, 14154000000, 
-0.0446928684977296, -0.23912299994793657, -0.5282572509421488, 14160000000, 
-0.10872111330895785, -0.09280283609524961, -0.5287025845896732, 14165000000, 
-0.03595911127264331, -0.24477063754374992, -0.5292947887431003, 14171000000, 
0.0143657740318473, -0.2777661798749995, -0.529343263495515, 14176000000, 
-0.07908977496695, -0.1444436492720631, -0.5294605327349472, 14181000000, 
0.045557060703458246, -0.2251881332291782, -0.5298369441905886, 14186000000, 
-0.02326912160622965, -0.2222863712057415, -0.5294484863779544, 14191000000, 
-0.07925268375878311, -0.22928347154233478, -0.5275188329945786, 14196000000, 
0.027465961500508198, -0.21230071838092157, -0.5262577062546422, 14201000000, 
-0.10291244932070459, -0.13954918717643539, -0.5252602890578904, 14206000000, 
0.033326702117621086, -0.22249086551711406, -0.5220484592650232, 14211000000, 
0.19203846072697267, -0.2555766049216209, -0.5186682182768664, 14216000000, 
-0.18720205557326322, -0.14656227148676418, -0.517046298447181, 14221000000, 
0.00933618285832942, -0.19334480512836225, -0.5146449807937928, 14226000000, 
-0.050384035714835, -0.2679717246955608, -0.5102969505708713, 14231000000, 
-0.1227531840581578, -0.11899655855900496, -0.5076292421055442, 14236000000, 
0.09298582335721473, -0.25313482549611754, -0.5049778339291239, 14241000000, 
-0.15070972992822707, -0.0889262650790986, -0.5017492293859382, 14246000000, 
0.13380880151099608, -0.2011570444736093, -0.4990738227299036, 14251000000, 
0.051814883920227366, -0.27615266768682667, -0.49626741999662094, 14256000000, 
-0.21616257788302423, -0.07909111270783221, -0.49470847175935, 14261000000, 
-0.04789632983400201, -0.18470712921217675, -0.49299576521809674, 14266000000, 
-0.054584982535383235, -0.17092345669238376, -0.4916722548987316, 14272000000, 
-0.09181318261388358, -0.18518805310769368, -0.49134493808320445, 14277000000, 
0.21422821260981878, -0.25897697647178475, -0.49181185909546415, 14282000000, 
-0.14470990911485546, -0.09589233701330639, -0.49282388596905313, 14287000000, 
-0.0455840308258789, -0.21665659846850158, -0.4944484430126834, 14292000000, 
0.059571804085669755, -0.22981401107753024, -0.4953412474503889, 14297000000, 
-0.14843287362660076, -0.1392797180305772, -0.4973405308257915, 14303000000, 
0.040980314316338154, -0.25199544873440977, -0.4993182365104182, 14308000000, 
-0.14651106104818226, -0.08762111726295281, -0.5010950037248469, 14313000000, 
-0.06362548897597876, -0.24911268562486757, -0.5025746843316095, 14318000000, 
0.009725032828206182, -0.25565258378099376, -0.5041566448459797, 14323000000, 
-0.1350095826128395, -0.11816185786094383, -0.5045768887923431, 14328000000, 
-0.03792476528261177, -0.21153702088497367, -0.5052696707882718, 14333000000, 
0.03211281575411504, -0.2612744641855171, -0.5055734983429572, 14338000000, 
-0.11000245954721101, -0.10263362143755435, -0.5051221253671782, 14343000000, 
-0.022027269508301466, -0.19880419664865087, -0.50494406767029, 14348000000, 
0.2592525121834994, -0.23299747492342854, -0.5041853489802672, 14353000000, 
-0.14817714988065261, -0.0999765127668644, -0.5030809405486676, 14358000000, 
-0.08269772569708657, -0.18041401009831184, -0.5022267462361626, 14363000000, 
0.020480316161685757, -0.24365817986472513, -0.501261082735226, 14368000000, 
-0.13804017614807526, -0.11952785877055223, -0.5002038393048, 14373000000, 
0.03485770337998893, -0.20903556834559472, -0.4989831563011404, 14378000000, 
-0.1304826753762079, -0.10876942576345329, -0.49813639040095475, 14383000000, 
-0.04486056063691925, -0.20274867116712328, -0.49795013700140955, 14388000000, 
0.034504783476599125, -0.24613700414794076, -0.4974773021662175, 14393000000, 
-0.12164366653178284, -0.08841847389772639, -0.4974052758066542, 14398000000, 
-0.052721478720731206, -0.1868296591458676, -0.497405725174122, 14403000000, 
0.014307930520309887, -0.1994883514884688, -0.49762335644359, 14408000000, 
-0.14571368042543473, -0.08896648550395657, -0.4981961468005701, 14413000000, 
0.12271109976066118, -0.18136594301422942, -0.4982733679732276, 14418000000, 
-0.010737947675258902, -0.21368759385468805, -0.49895350380974174, 14423000000, 
-0.061435634321188565, -0.13485243867283092, -0.49934076673365435, 14428000000, 
-0.0548973946403043, -0.212989329161808, -0.5001485866518808, 14433000000, 
-0.04508459043067361, -0.1851910899156528, -0.5005993339643047, 14438000000, 
-0.0010328146113169866, -0.20676845855874493, -0.5012099973292694, 14443000000, 
-0.08434953402574928, -0.13271159626595724, -0.5016483547324524, 14449000000, 
0.16986360810631818, -0.16128873127580173, -0.50210873757604, 14454000000, 
-0.05980286710833609, -0.18867263586871927, -0.5016821647327845, 14460000000, 
-0.06829717447469819, -0.18748505134095347, -0.5021130247427955, 14465000000, 
-0.061488220393561624, -0.1684931857061382, -0.5022524855926772, 14471000000, 
-0.04953114067392889, -0.29541563419628086, -0.5022802654840359, 14476000000, 
-0.05432109493675029, -0.11341238425452713, -0.5024812097488479, 14481000000, 
0.15235832886782225, -0.19086513704859995, -0.5028670661319455, 14486000000, 
-0.007283104849360678, -0.20699536408990055, -0.5030609455089651, 14492000000, 
-0.20839711787462759, -0.21791572129327824, -0.5042782304176617, 14497000000, 
0.0737502780676614, -0.21551726488759484, -0.5058051782922596, 14502000000, 
-0.0039893596912911845, -0.21232147630780518, -0.5070958049602714, 14507000000, 
-0.1212614754623878, -0.229830146094066, -0.5073771881184082, 14512000000, 
-0.10679035618623636, -0.20412588002550813, -0.5094650064513382, 14517000000, 
0.24270612456882076, -0.21495286756763865, -0.5109569447320638, 14522000000, 
-0.026702788966816306, -0.18454794829751056, -0.5116306807982429, 14527000000, 
-0.15253309833872755, -0.30282518565939504, -0.5118014878944496, 14533000000, 
-0.01823585149211011, -0.10725654636233775, -0.5124070494530384, 14538000000, 
0.023323781206383, -0.17773802098978445, -0.51274202943411, 14543000000, 
-0.007237317128233955, -0.20952764075634897, -0.5119509532340395, 14548000000, 
-0.07519058120703814, -0.1910135567274237, -0.510846913939586, 14553000000, 
-0.0036014988980208554, -0.19958752664942772, -0.5097057565585013, 14558000000, 
-0.034439378353051935, -0.18051701183502852, -0.5075313713107487, 14563000000, 
-0.11353760443369365, -0.19806058471991939, -0.5050627848335546, 14568000000, 
-0.00304270102020672, -0.1928445180197385, -0.5030585363687443, 14574000000, 
0.021068582931767083, -0.24941692988601863, -0.5008039763172087, 14579000000, 
-0.08012187820666478, -0.12252055640097238, -0.4990540060872833, 14584000000, 
0.1502934134750212, -0.20258943752907432, -0.4973110600910193, 14589000000, 
0.018461789426174244, -0.22931177505391342, -0.49615468360313336, 14594000000, 
-0.11966037164984607, -0.12268997752190706, -0.4948855566133504, 14599000000, 
-0.05816450342682818, -0.223272643071696, -0.49443805439292765, 14604000000, 
-0.011908997227340344, -0.2385064962492435, -0.49363728218564523, 14610000000, 
-0.09300691623124727, -0.12902408285348355, -0.49430122755656003, 14615000000, 
-0.0189408313368759, -0.25307482919653024, -0.49496026553722744, 14620000000, 
-0.07690852501587028, -0.11156571408215032, -0.49592657777582194, 14626000000, 
-0.061773131587896615, -0.1915471725232316, -0.4964637140290911, 14631000000, 
-0.035609633247896975, -0.25530373783958604, -0.49803500213730784, 14636000000, 
-0.0839868591930985, -0.1202079143302701, -0.49946826691135104, 14641000000, 
-0.041057126900028065, -0.18614933210798473, -0.5011000095231374, 14646000000, 
-0.02343166368521766, -0.2620048456861251, -0.501478020684441, 14651000000, 
0.06693587357765192, -0.10895400285805676, -0.5026800357494925, 14656000000, 
0.03497920354428359, -0.28094949646337936, -0.5033150268766129, 14661000000, 
-0.09465504589632728, -0.10935485230674565, -0.5035414180340294, 14666000000, 
-0.04265030136791018, -0.18395758491766806, -0.5038812462207624, 14671000000, 
-0.013037372542107486, -0.2380763076374808, -0.503345041638463, 14676000000, 
-0.10832678096524966, -0.11067308878158622, -0.5031476718010413, 14681000000, 
-0.0073737108461980425, -0.26184880217405454, -0.5026796693475036, 14686000000, 
0.11262756845016557, -0.16406076843049022, -0.5017594570599445, 14691000000, 
-0.06586494652042314, -0.20008687610491283, -0.501718734759429, 14696000000, 
-0.01242998739998733, -0.28343210045456263, -0.5002639074940057, 14701000000, 
-0.0738515064666076, -0.13492242677227256, -0.5001928975336574, 14706000000, 
-0.040024109827044504, -0.2769765566875015, -0.49896561785518034, 14711000000, 
-0.09439547832580561, -0.16058593599587714, -0.4987978266957224, 14716000000, 
-0.0579991883507235, -0.1988677344921422, -0.4982842595193229, 14721000000, 
-0.03615782798933724, -0.24489275410812836, -0.49821627242112715, 14726000000, 
-0.0816817013266485, -0.11560015061038555, -0.4979975103591535, 14731000000, 
-0.04890945561427832, -0.21754040169753763, -0.4983428024991252, 14736000000, 
-0.02640009447375641, -0.2580530399452889, -0.4980481910192932, 14741000000, 
-0.08891235374485547, -0.11098340412359274, -0.4985556901976407, 14746000000, 
-0.024504647945942974, -0.2545049322862264, -0.49923448892858474, 14751000000, 
-0.03628098842596668, -0.20677284982775745, -0.4990653234866583, 14756000000, 
0.07261656699990357, -0.15354747732560353, -0.4999452086586981, 14761000000, 
-0.03548744278243123, -0.27210579928368844, -0.5000648171244801, 14766000000, 
-0.13130404513766747, -0.11021033154593897, -0.5009919092632409, 14771000000, 
-0.04193696569982591, -0.16987400739927697, -0.502054446236702, 14776000000, 
-0.21862486583282664, -0.27668143057736866, -0.5030179967887521, 14781000000, 
0.04702238945411907, -0.10299249617695852, -0.5050323672074863, 14786000000, 
-0.09755257874007564, -0.22831623822623429, -0.5063824353929489, 14791000000, 
-0.11496068276929984, -0.1676334509465884, -0.5083195794319018, 14796000000, 
0.05811527776026035, -0.19869462451930667, -0.5092075051177053, 14801000000, 
-0.11090906502003849, -0.2139964294024105, -0.5113268980127872, 14806000000, 
-0.05489303048826594, -0.20048002621189684, -0.5133552932327626, 14811000000, 
0.04482477774708694, -0.176626750538611, -0.5146036366295093, 14816000000, 
-0.14756088883221777, -0.22096981226443033, -0.5150951599659558, 14821000000, 
0.057412299607710285, -0.17082442566925776, -0.5158254393620617, 14826000000, 
0.05371557562657579, -0.182484490564296, -0.5161745270751225, 14831000000, 
-0.17749007624100516, -0.1873852108366362, -0.5163015165608027, 14836000000, 
-0.10679075367834395, -0.24520147885461258, -0.5163162485063804, 14841000000, 
0.051856362914209836, -0.13388054620412762, -0.5164272518460586, 14846000000, 
-0.015044102523067125, -0.21303693182301225, -0.5166397545103975, 14851000000, 
-0.22085458615301506, -0.2716797150681938, -0.5158191631271286, 14856000000, 
0.15493652332079888, -0.1240413738316042, -0.5158419588564638, 14861000000, 
-0.06577208731837847, -0.24216143444640822, -0.5149586433292055, 14866000000, 
-0.14116535737440983, -0.24109187775172616, -0.5146051515894527, 14871000000, 
0.03565412933964847, -0.14029728762908256, -0.5143934398248349, 14881000000, 
-0.15540128928069877, -0.33646292820657686, -0.5135155699326343, 14886000000, 
-0.07619021577950773, -0.14490012663444568, -0.5129560848710102, 14891000000, 
0.3619837214172944, -0.20190177611424692, -0.5130663170234406, 14896000000, 
-0.05164168998304448, -0.2966765132445034, -0.5119815273327094, 14901000000, 
-0.011775754161697273, -0.07117306283517537, -0.5115619963387922, 14906000000, 
0.013332982380965828, -0.1973575642285496, -0.511115754226457, 14911000000, 
-0.08581271228831044, -0.2954561334116132, -0.5094778468375476, 14916000000, 
-0.06829156401011456, -0.08450284186058114, -0.5091920922867129, 14921000000, 
0.003155305272346389, -0.19291207079580708, -0.5081114785865622, 14927000000, 
0.0870411527045148, -0.1626742508926161, -0.5069006362006695, 14932000000, 
-0.008047876014874724, -0.21295881755344626, -0.5057888321897547, 14937000000, 
-0.12403693536718584, -0.2798278375258523, -0.5045149609778948, 14943000000, 
-0.010649625185496196, -0.08715274541290335, -0.5030297441292837, 14948000000, 
-0.04475166461754473, -0.18445278740650947, -0.5020299680181762, 14953000000, 
-0.028883811579255094, -0.23193220543577275, -0.5000798335018471, 14958000000, 
0.09548092024647313, -0.1362737956573791, -0.49894087329467335, 14964000000, 
-0.059931905255016335, -0.287431728444502, -0.4974039693689193, 14969000000, 
-0.07121394720645005, -0.10457132101340183, -0.4968508413395663, 14974000000, 
-0.018794425377127104, -0.17509289565844088, -0.4968464691849303, 14979000000, 
-0.0029383721890161862, -0.2938660930442249, -0.4955276323040662, 14984000000, 
-0.039611544964609884, -0.10166829079124025, -0.4962057955564662, 14989000000, 
-0.03804287025335646, -0.24218281205435163, -0.49640075512194975, 14994000000, 
0.12187490827409589, -0.12219400029332914, -0.4967297941391227, 14999000000, 
-0.05900444411281181, -0.18944478396663178, -0.4972896247632174, 15004000000, 
-0.03418554223667599, -0.259252101846159, -0.4979052552218908, 15009000000, 
-0.06640417042459267, -0.08709676691897979, -0.4992170667350771, 15014000000, 
-0.053141825075530266, -0.2748355117689022, -0.49977992546691746, 15019000000, 
-0.052498163346999714, -0.1018097376986535, -0.5002399482318994, 15024000000, 
-0.08080201972719837, -0.19764901332355808, -0.5013353750841005, 15029000000, 
0.4801115677049425, -0.2867472276027315, -0.5018064402860893, 15034000000, 
-0.08922188466631474, -0.11921183132386887, -0.5018727867614224, 15039000000, 
-0.07110723086960088, -0.19931319100240377, -0.5025109133516622, 15044000000, 
-0.031924435907006464, -0.2990689219020482, -0.5020914799913655, 15049000000, 
-0.08059719926023673, -0.10049915114582306, -0.5023105402995628, 15054000000, 
-0.026128793562872777, -0.23777836876631372, -0.5024949390502065, 15059000000, 
0.1293022728950466, -0.13784920293705558, -0.5014146655385358, 15064000000, 
-0.02011892003172235, -0.20321458238699416, -0.501156325046537, 15070000000, 
-0.03470230766076922, -0.278733735412123, -0.5005154986292325, 15076000000, 
-0.057293176075880727, -0.08609052760593777, -0.5003831402629987, 15081000000, 
-0.06585956009421365, -0.2562612437132722, -0.49960760416039157, 15086000000, 
-0.056158915758540026, -0.08138454623786462, -0.49983456114670066, 15092000000, 
0.0399228372432133, -0.26074562933015066, -0.4989407250122239, 15098000000, 
0.027296126226139077, -0.21923844766162384, -0.49885360437396803, 15103000000, 
-0.09794646919479563, -0.12959219627475319, -0.49890336443131156, 15108000000, 
-0.06863400480053608, -0.2811150486001822, -0.4986695087279372, 15113000000, 
-0.03821945830039287, -0.07454597169792425, -0.49838912202982555, 15118000000, 
-0.03333282821315143, -0.1995892446033717, -0.4989298341251879, 15123000000, 
-0.04769676359108828, -0.2654446976533931, -0.4993023969940548, 15128000000, 
0.342797026513531, -0.07093681030176303, -0.4993687755965438, 15134000000, 
-0.0012912626620500342, -0.21088072208472458, -0.4999476919651836, 15139000000, 
-0.0379154903598375, -0.29693599415350314, -0.49995098891483175, 15144000000, 
-0.07564299617773826, -0.1462583792266234, -0.5005323846102454, 15149000000, 
-0.059178648551629486, -0.2172313190533201, -0.5005461613912748, 15155000000, 
-0.04010927994088152, -0.2140418809249443, -0.5006891172844303, 15161000000, 
0.11316663482207459, -0.17358068410991062, -0.5009706144468, 15166000000, 
0.009968646612991662, -0.20191073941207793, -0.5007917275549856, 15171000000, 
-0.11190236039254609, -0.2864078028852484, -0.5011666796759837, 15176000000, 
-0.029458279173817943, -0.12424746240580899, -0.5015210984965484, 15181000000, 
-0.04578489631444472, -0.18491848619628853, -0.5015131272935387, 15186000000, 
-0.01933127646091333, -0.18782447379616302, -0.5016426576623934, 15191000000, 
-0.07141576494698929, -0.20055847126100798, -0.50216172551816, 15198000000, 
0.1902232455170819, -0.1721557549904507, -0.5030315647537664, 15204000000, 
-0.04720616495710794, -0.18109879588249472, -0.5029637357079746, 15209000000, 
-0.11394897050067465, -0.18242878658569048, -0.5027893895373784, 15214000000, 
0.028347900734003693, -0.24506472382930444, -0.5035072159767713, 15220000000, 
-0.05710592279020571, -0.21757839922901792, -0.5040173792849912, 15225000000, 
-0.0389156368071725, -0.24837767352665632, -0.503447139367637, 15230000000, 
0.17693309774213994, -0.1504760286297596, -0.5028353310446596, 15236000000, 
-0.03504450733776833, -0.1918098990244055, -0.5026935991165087, 15241000000, 
-0.02201124765824952, -0.27477599015615434, -0.5018621921978687, 15246000000, 
-0.08387142157015669, -0.09763307004214883, -0.501229011967982, 15251000000, 
-0.060282600921606457, -0.2171688583174512, -0.500946473743013, 15256000000, 
-0.022010621222251378, -0.18032183046185302, -0.5001414172459051, 15261000000, 
0.16027325759946964, -0.17641653582633593, -0.49926468747567365, 15271000000, 
-0.044138266469585984, -0.23686211769501275, -0.49862522943903853, 15277000000, 
-0.05103121104193355, -0.19925318544262363, -0.4978761892528375, 15282000000, 
-0.06803038871187221, -0.2029890927837604, -0.4979463697442619, 15287000000, 
-0.07804062777411334, -0.1906844559852759, -0.4978797367540994, 15292000000, 
-0.024099285135428642, -0.20922870319224776, -0.49791392942385393, 15297000000, 
0.14402209557096562, -0.19855321124242206, -0.4983966864874107, 15302000000, 
-0.04578979498071033, -0.19389151210643757, -0.49907622064652657, 15307000000, 
-0.0775341060155553, -0.3225544293410908, -0.4989304894278869, 15312000000, 
-0.027877537546843252, -0.11972714244918486, -0.49948022923318786, 15317000000, 
-0.0866856477509402, -0.20123052372441994, -0.49978979357857267, 15322000000, 
-0.04307531080710507, -0.3011167801103732, -0.49979170729741296, 15327000000, 
-0.0773733917092464, -0.13395453679891692, -0.5002661131456192, 15332000000, 
0.30556165342003166, -0.2718082496804426, -0.500915998778261, 15337000000, 
-0.07770217028597746, -0.08924241874566724, -0.5011404441757421, 15342000000, 
-0.07549458860213316, -0.22188775152896528, -0.5011474679236997, 15347000000, 
-0.06528870760775807, -0.276341554706883, -0.5009014567708475, 15352000000, 
-0.04395472712867108, -0.11115425322697733, -0.5010991556410974, 15357000000, 
-0.09709522368852948, -0.19915418906297805, -0.5012478888002877, 15363000000, 
-0.06223059029413882, -0.2096470708241086, -0.5005256892829955, 15369000000, 
0.11160015401244133, -0.2231247177469366, -0.5009939893764896, 15374000000, 
-0.07476707784524364, -0.30975674900483796, -0.5002468418771109, 15379000000, 
-0.06688117096736024, -0.12661067918982988, -0.5000764849916783, 15384000000, 
-0.043418112394394234, -0.20238004197893047, -0.4998666456521655, 15389000000, 
-0.07066602081945078, -0.2665281985310031, -0.4996610778193555, 15394000000, 
-0.03363250631898607, -0.095821962261063, -0.4996295449941763, 15399000000, 
0.13337946013119711, -0.2985819077528422, -0.49975844326146984, 15404000000, 
-0.0063665023195200645, -0.08328444750796599, -0.4994630301751875, 15409000000, 
-0.07676563910727217, -0.23133955603989131, -0.49930333510691566, 15414000000, 
-0.035153410001537724, -0.21549139195114717, -0.4990855255881282, 15419000000, 
-0.0712476874159053, -0.2013980420713276, -0.499523057152444, 15424000000, 
-0.04672703109231659, -0.3693989881494348, -0.4992417250207434, 15429000000, 
-0.06329717798963451, -0.1485714745881569, -0.49979158744536417, 15436000000, 
0.14615129547710404, -0.31372672984586564, -0.49996906938551383, 15441000000, 
-0.03323728021554438, -0.06874097000018158, -0.4999876686149119, 15446000000, 
-0.06638756709330747, -0.2885288677978056, -0.500567188438688, 15451000000, 
-0.03452489631481401, -0.11650723754386591, -0.5000827088907693, 15456000000, 
-0.08025802023496112, -0.21019315032228414, -0.5003355895482768, 15461000000, 
-0.1074638172039789, -0.3180424237456315, -0.5005288335388088, 15466000000, 
-0.035135504466624425, -0.05455878681566104, -0.5002723351860345, 15471000000, 
0.10271733960427301, -0.21561676418563186, -0.5000483492195301, 15476000000, 
-0.08143814935050663, -0.3519102530183895, -0.5006867121474465, 15481000000, 
-0.05869782780692654, -0.08545832935569803, -0.5002097841114167, 15486000000, 
-0.05110238872858609, -0.23174836290604786, -0.5006446815957241, 15492000000, 
-0.05318492267114628, -0.19550792616051768, -0.5001862916931754, 15497000000, 
-0.058947699245005744, -0.17880906635420546, -0.5005136697663503, 15503000000, 
0.09569240658510415, -0.29368320543722726, -0.5002365839412601, 15508000000, 
-0.07621481367547178, -0.045615851343682234, -0.4999143894210348, 15513000000, 
-0.062197968893055046, -0.21334374839049866, -0.5000407250376094, 15519000000, 
-0.08279357041581573, -0.41903225287274903, -0.4998402112654307, 15524000000, 
-0.0631957100829422, -0.1234431484125797, -0.5000940040292506, 15529000000, 
-0.05502146982513318, -0.2234070172679199, -0.49997966643583824, 15534000000, 
-0.16254716344492864, -0.35222508479254233, -0.5000031984207811, 15539000000, 
0.18246105134920276, -0.09292440558734515, -0.5015674352322319, 15544000000, 
-0.04367688764070398, -0.1938421581387899, -0.5019519241106579, 15549000000, 
-0.18270002613767422, -0.34222274514444695, -0.5030296453402805, 15554000000, 
0.025052344085999156, -0.026191070931352232, -0.5042407016981363, 15559000000, 
-0.00480544162001907, -0.20247734560773564, -0.5055934748716059, 15564000000, 
-0.18903862661604626, -0.30215272721162456, -0.5066127320911313, 15569000000, 
0.28200735548774064, -0.076570695627793, -0.5087418069620042, 15574000000, 
0.014059689018812513, -0.23298625764094366, -0.5092279623572299, 15579000000, 
-0.3142892292943451, -0.45589880224956714, -0.5107769600182261, 15584000000, 
0.06340395826253786, -0.05503081223780834, -0.5121331382899608, 15589000000, 
0.025823953669298037, -0.19613975055764335, -0.5128982129025236, 15594000000, 
-0.3061049328907202, -0.4010458626017591, -0.513221164122379, 15599000000, 
0.16245243269468218, -0.08559398629303511, -0.5144142899269346, 15604000000, 
0.20965391386945204, -0.21544516355656254, -0.5143442010765482, 15609000000, 
-0.19693207430892326, -0.2333596998534908, -0.514063830413456, 15614000000, 
0.06867883251849753, -0.19899034146393757, -0.5141598350313954, 15619000000, 
-0.010228763050763473, -0.21580154396873086, -0.5135867979916472, 15624000000, 
-0.1734269573935667, -0.3303626150474178, -0.5124110181556766, 15631000000, 
0.024774438051641635, -0.11378811664692172, -0.5113996865879483, 15636000000, 
-0.11084486217861986, -0.3792223357596929, -0.5095444571873029, 15641000000, 
-4.783729563549808e-05, -0.04661886023298044, -0.5083680764363098, 15646000000, 
-0.01041019683287871, -0.23217233356238723, -0.5071176533214549, 15651000000, 
-0.17148289054251398, -0.3753493954550298, -0.5055047939029551, 15656000000, 
0.014095524651170687, -0.04325211327596241, -0.5041661493449241, 15661000000, 
-0.01011278574686196, -0.18902998474843163, -0.502938705755508, 15666000000, 
-0.08499738861112102, -0.34859330387954063, -0.5010552909015688, 15671000000, 
-0.026363099229052965, -0.02968330319744718, -0.49998619361173485, 15676000000, 
0.2460286020102369, -0.30788895430643004, -0.49927745140170454, 15681000000, 
-0.029816430903890905, -0.11833908627458935, -0.49726935876855516, 15686000000, 
-0.06970449819028061, -0.17304644449471515, -0.4969494752682162, 15691000000, 
-0.08689028462301618, -0.33202398146772083, -0.4959659000480737, 15696000000, 
-0.02808841839460359, -0.01718562844417766, -0.49533537827227536, 15702000000, 
-0.11141930055586802, -0.300979581903159, -0.4962346675594684, 15707000000, 
0.20650535361119585, -0.22926233503514065, -0.49570039692815526, 15712000000, 
-0.017223647864593246, -0.0885791108953531, -0.49676560985925877, 15717000000, 
-0.07221065463191682, -0.39097721026674387, -0.4974592843497989, 15722000000, 
0.0018933504622701044, 0.167085131513452, -0.49769685873949293, 15727000000, 
-0.1039489028103932, -0.3268876800166368, -0.49926885554448036, 15732000000, 
-0.03243134946586949, -0.037454267973754986, -0.5001011355394818, 15737000000, 
-0.06842565505275196, -0.20363600203127893, -0.5007624774046447, 15742000000, 
0.09411474627729302, -0.39131306752031514, -0.5015326590466491, 15747000000, 
-0.03362737190612921, -0.1295219391058704, -0.5021972027220699, 15753000000, 
-0.10932171505025336, -0.40622806704359915, -0.5022689677611993, 15758000000, 
-0.01951911791841759, -0.021189973694077473, -0.5024250058970298, 15763000000, 
-0.07071700446735056, -0.3328211655875977, -0.5023700028252163, 15769000000, 
-0.017419931604030083, -0.053287058682551486, -0.502582486564799, 15775000000, 
-0.07715262050831827, -0.34098170693576757, -0.502330547942856, 15780000000, 
-0.0530105718464199, -0.09090841890307794, -0.5014793057287716, 15785000000, 
-0.03479138345275409, -0.19605286236181899, -0.5012877782749205, 15790000000, 
-0.07344988950161861, -0.35404749387731044, -0.5006114871545612, 15796000000, 
-0.027716359202731612, -0.06851078843694197, -0.5000117650821199, 15801000000, 
-0.04982721203603427, -0.22985913075209236, -0.5003363128984216, 15806000000, 
-0.05236532314003871, -0.21082244357805757, -0.4990665457340045, 15811000000, 
0.32475655885095167, -0.18908517674263436, -0.4990267803697056, 15816000000, 
-0.1033778944355673, -0.37264490812849954, -0.4986552705007905, 15821000000, 
-0.08007224466657757, -0.20908246450362075, -0.49814830838656476, 15826000000, 
-0.037533009119146976, -0.12371166050086108, -0.4986070682704648, 15831000000, 
-0.15782478988044749, -0.3430789813217134, -0.4991277085096541, 15836000000, 
-0.002047117689506054, -0.05583100843513945, -0.4994603370755831, 15841000000, 
0.14211178254787277, -0.23683281918874124, -0.5011418854697892, 15846000000, 
-0.11806259669624494, -0.43621659645562255, -0.5014074744358318, 15851000000, 
0.02521712141176247, 0.008353849944984448, -0.5030842765230402, 15856000000, 
-0.04639983883295397, -0.24037691407368728, -0.5039617398969511, 15861000000, 
-0.18009152800085945, -0.3575498668187407, -0.5053684456587709, 15866000000, 
0.10224221016463891, -0.0020579107777151853, -0.5071074963741781, 15871000000, 
-0.016422695497657864, -0.19967553676072541, -0.5082549143482631, 15876000000, 
0.019534501015735378, -0.3798606540583985, -0.5089329025109508, 15883000000, 
0.02508709593209759, -0.10638666491409562, -0.5111389945892996, 15888000000, 
-0.12748756765750732, -0.23141505820259564, -0.5118210617255867, 15893000000, 
-0.09421231657313825, -0.18141973610816003, -0.5128021750537551, 15898000000, 
0.11487368331456858, -0.19400225783001823, -0.514545045967522, 15903000000, 
-0.004525035414765998, -0.22529762883324145, -0.5150132641299675, 15908000000, 
-0.23611623728687778, -0.39507805746806157, -0.5152606078032501, 15916000000, 
0.23199613499660932, -0.0963131084428572, -0.5157633991741428, 15921000000, 
-0.09042151433346614, -0.255231022466572, -0.5152652142308275, 15926000000, 
-0.14127857047347925, -0.2184418951868798, -0.5153038122528074, 15931000000, 
0.07066149769634658, -0.19112394281392814, -0.5155196152759829, 15936000000, 
-0.05763021781627069, -0.27621009241591526, -0.5145006149309029, 15941000000, 
-0.254038592588768, -0.41376143408883237, -0.5135314899226469, 15946000000, 
0.13321000335303498, 0.07881063791415115, -0.5141214998377088, 15951000000, 
-0.09120488176342331, -0.2931043345876535, -0.5123820883016554, 15958000000, 
-0.07428962596908577, 0.03395258215482322, -0.5122378928908689, 15963000000, 
0.061202800260105494, -0.17374657993446702, -0.5113767415258047, 15968000000, 
-0.058956555178015485, -0.22198180807787415, -0.5107990579213276, 15974000000, 
-0.07901985676396302, -0.2517278854600351, -0.5092985679566392, 15979000000, 
0.006014187634709321, -0.2581173001673604, -0.5088787544710545, 15984000000, 
0.2427027567202652, -0.23229262765084793, -0.507987498703942, 15989000000, 
-0.07976378974310044, -0.20692933671173272, -0.5047305590049463, 15995000000, 
-0.08048508940899228, -0.39091308043431017, -0.5036805736568954, 16000000000, 
0.0020933881215431174, -0.05007899254867061, -0.5013614299451119, 16006000000, 
-0.06358662220322933, -0.25120365566249686, -0.5004498768814186, 16011000000, 
0.07881148136653968, -0.2046463983598699, -0.49830013830013076, 16016000000, 
-0.013789555005233683, -0.22856355266448541, -0.4977453313181265, 16022000000, 
-0.15574568455877605, -0.5958862208796235, -0.4972425393720414, 16027000000, 
-0.05321792718163114, -0.12507407573404578, -0.4957754850762718, 16032000000, 
-0.055799807668494475, -0.23201786119012874, -0.4959897238438038, 16037000000, 
-0.10764365778593796, -0.394714233381038, -0.4954445760241659, 16042000000, 
-0.01828488943026993, 0.09168387636647528, -0.49604952484480597, 16047000000, 
0.07840010279175656, -0.3642763852521315, -0.4964286110051212, 16052000000, 
-0.03441642990084806, -0.2582855994635588, -0.49677381265107085, 16057000000, 
-0.055973981011379716, -0.10935616207398939, -0.49812081978150463, 16063000000, 
-0.062175809084103424, -0.36766413560801203, -0.498787805376583, 16068000000, 
-0.05732519730742423, -0.10452463763792284, -0.5004325093451171, 16074000000, 
-0.0607976792629407, -0.37042747922777114, -0.5010236381622002, 16079000000, 
0.11441245488556563, -0.03034782462287404, -0.5020758819755439, 16084000000, 
-0.015985696046752387, -0.21847804298687143, -0.5028850362345022, 16089000000, 
-0.07793417958754287, -0.41973743998346097, -0.5024719355083903, 16094000000, 
-0.07353722953142186, -0.045215383550531854, -0.50298830382823, 16099000000, 
-0.07669428263738817, -0.39314154521012123, -0.5026241858731161, 16104000000, 
-0.026390980095550937, -0.02109873482424118, -0.5024074863952809, 16109000000, 
0.0010982736361322687, -0.22589837260820697, -0.5022065818275774, 16114000000, 
0.13132161803677955, -0.39693099679403415, -0.5014167030849823, 16119000000, 
-0.05329403458789189, -0.05075812999094168, -0.5012263427206038, 16125000000, 
-0.07428809525953933, -0.3487481159336238, -0.5008600910702301, 16130000000, 
-0.051243314057026396, -0.06142083241125182, -0.5001513103326762, 16135000000, 
-0.06763706131194949, -0.18627807825871354, -0.49978782898337115, 16140000000, 
-0.06287118440659066, -0.37346529439583753, -0.49919344777961366, 16145000000, 
-0.04417832218751228, -0.1938556608753264, -0.4989406445229676, 16150000000, 
0.12759149597630928, -0.08694122809009168, -0.49883093878850876, 16155000000, 
-0.0883917941001019, -0.3807144094587049, -0.4989488821851724, 16160000000, 
-0.03791742989389136, -0.07329656536483822, -0.49829745900097167, 16165000000, 
-0.07474377872078274, -0.23577341637377203, -0.49928593252377246, 16170000000, 
-0.15900354105159908, -0.3551594414531803, -0.49937610198681565, 16175000000, 
0.000216299198110316, -0.07371319779436254, -0.5003377630954188, 16180000000, 
-0.06780072788241151, -0.21848188798885507, -0.5018936829704294, 16185000000, 
0.022422435630972716, -0.39609580005548123, -0.5022627428278835, 16190000000, 
0.06905074467334493, -0.02635459892596509, -0.5043803450410959, 16195000000, 
-0.03880783406057299, -0.24206089434038336, -0.5055481133118885, 16200000000, 
-0.13702299760912867, -0.36111052725638937, -0.5072491624663235, 16205000000, 
-0.012366072294633278, 0.0001749300488695783, -0.5089923947041146, 16210000000, 
0.005472620958875418, -0.2189538269597919, -0.5109112465552691, 16216000000, 
-0.25753584507535954, -0.47129975205564667, -0.5119304156819535, 16221000000, 
0.028911193162525026, -0.10612801189851921, -0.5145678581879373, 16228000000, 
-0.08975136134232828, -0.24728142285845114, -0.5151749604764466, 16236000000, 
-0.07361985705082262, -0.2118674264278539, -0.5165820123248153, 16241000000, 
0.008380759167079338, -0.22653969762808396, -0.5165496643545378, 16246000000, 
-0.22662604549169268, -0.24763987364103193, -0.5168047863874442, 16251000000, 
0.17238105164307674, -0.1659081075398821, -0.5175115502765669, 16257000000, 
0.07439107706132499, -0.23480933761088812, -0.5178668985565041, 16263000000, 
-0.17162945868721896, -0.3531740053156399, -0.5171079023666968, 16268000000, 
-0.036099001726109456, -0.0930287275962881, -0.5172765836243053, 16273000000, 
0.06820160924799692, -0.2267826859786175, -0.5163545203479891, 16278000000, 
-0.12508865681860576, -0.24052506622304, -0.5160810027961779, 16284000000, 
0.055008702417488245, -0.20893772800106655, -0.5150969975577828, 16289000000, 
0.06740834595293174, -0.24438305846867875, -0.5144509727521758, 16294000000, 
-0.15040879312894911, -0.34954673234133277, -0.5124760448892738, 16299000000, 
0.009829017589756791, -0.09325192795943006, -0.510872961754877, 16307000000, 
-0.07653649428905654, -0.3643495933104854, -0.5097792563990715, 16313000000, 
-0.03802870115915664, -0.11980690241590805, -0.5077624645132595, 16318000000, 
0.13767069673158705, -0.32042448036758575, -0.5061151274968518, 16323000000, 
-0.08383123479218471, -0.08097630501618952, -0.5042711987202952, 16328000000, 
-0.02667341828243001, -0.2701611793399098, -0.5028268288292632, 16333000000, 
-0.024083852994491964, -0.36308643284139674, -0.5003447484707967, 16338000000, 
-0.054045850135735485, -0.11565115956443484, -0.4978699995756449, 16345000000, 
-0.04284038998351673, -0.3188059196582396, -0.496036750354146, 16353000000, 
0.11150167706903678, -0.05873610620357574, -0.4947329103207736, 16358000000, 
-0.048912326070443414, -0.22295715078560224, -0.49447956651356056, 16363000000, 
-0.032053653287774965, -0.3584339332077917, -0.49412873119862, 16368000000, 
-0.06565902472703095, -0.08271955754727882, -0.49428100700612704, 16373000000, 
-0.03250174426574404, -0.2278124939222777, -0.4953753529489703, 16378000000, 
-0.03468363437144224, -0.37258872600337517, -0.4950332496248223, 16383000000, 
-0.07935951784826095, -0.12482228250926088, -0.49690788720184753, 16388000000, 
0.20005289592464748, -0.3275885973321281, -0.4983210721757372, 16393000000, 
-0.08689060674750884, -0.06279877881272027, -0.4991418810099009, 16398000000, 
-0.07051765078410861, -0.23835743923854583, -0.5010155066627593, 16403000000, 
-0.029543307440466824, -0.3940460310499195, -0.501466154718837, 16408000000, 
-0.09098806709723886, -0.08026866284603665, -0.5023202191454061, 16413000000, 
-0.038605283183006205, -0.33117458058323535, -0.5034192945269627, 16418000000, 
-0.0707363465039766, -0.0957269089780306, -0.5034176776588647, 16425000000, 
-0.056852498311543806, -0.23584410620447474, -0.5035373755554495, 16430000000, 
-0.02000767175241518, -0.3420138990719222, -0.5028991010743052, 16435000000, 
-0.0751911027375422, -0.08308290276579024, -0.5027950204545586, 16440000000, 
-0.0014612669217922182, -0.32042096779674506, -0.5027605382444645, 16445000000, 
-0.08626212154388822, -0.07922594085130105, -0.501669155165913, 16450000000, 
-0.09315339155950703, -0.2612932045742581, -0.5012491352171181, 16455000000, 
0.23562198177691915, -0.3676870200376277, -0.5005277250348926, 16460000000, 
-0.08903362189450574, -0.07193326263785511, -0.49978272079318004, 16465000000, 
-0.06988175886500825, -0.26233561334652633, -0.49939967536119245, 16470000000, 
-0.021290529054106017, -0.3402099138838989, -0.49873302363730365, 16475000000, 
-0.1200506938661462, -0.12483894231305796, -0.49856258938858244, 16481000000, 
-0.0687754279440489, -0.2347360507868095, -0.49866981620009637, 16486000000, 
-0.14511466441652895, -0.21067342203174114, -0.49895762628405477, 16492000000, 
0.2528396421473481, -0.22161157403223394, -0.4996375676471941, 16497000000, 
-0.07318260281337631, -0.2956005224111604, -0.5009155461582421, 16502000000, 
-0.054649826982973625, -0.10939937352313353, -0.5028585373553054, 16507000000, 
0.016143176527563773, -0.22941189545744795, -0.5043651401017321, 16512000000, 
-0.05083095982229876, -0.3230491637621617, -0.5059300579261595, 16517000000, 
-0.08752636032237872, -0.09932004493689087, -0.5083579857521235, 16522000000, 
0.15987564320665407, -0.2458851143154115, -0.5098211703699327, 16528000000, 
-0.21207516787422961, -0.3375818329223725, -0.5109065001381278, 16533000000, 
-0.02828616709099624, -0.13126307865232473, -0.5127137219093034, 16538000000, 
0.04552218323361269, -0.2528936157650352, -0.5135207075448245, 16543000000, 
-0.1814982421557477, -0.2504734962017739, -0.5146383390388158, 16548000000, 
-0.06730343223785203, -0.19187434632534023, -0.5152330602668675, 16553000000, 
0.06692296976384277, -0.23288775446647575, -0.5158709777656503, 16558000000, 
0.11802533023221438, -0.24654249688792593, -0.5160216787727033, 16563000000, 
-0.1564156619899113, -0.3545370602815785, -0.5162539462234184, 16568000000, 
-0.017527167236028603, -0.08777079222622336, -0.5162359671507256, 16573000000, 
0.012020515060936116, -0.2907088237381459, -0.5156883230923729, 16578000000, 
-0.1334525632210346, -0.21188287155468502, -0.5153853210759067, 16583000000, 
-0.11453510815843758, -0.2310088616095834, -0.5151268856297639, 16588000000, 
0.05376492955589983, -0.20980447983140468, -0.514951382549564, 16593000000, 
-0.07738580821345033, -0.21907771825409625, -0.5142761803312335, 16598000000, 
-0.15151637405367477, -0.3312668832555349, -0.5139571465230053, 16603000000, 
0.05476304954578408, -0.10448146202649468, -0.514123900603716, 16608000000, 
0.015788854417607617, -0.26850172874408734, -0.5136671667218433, 16613000000, 
-0.11795491213829859, -0.3075756927056677, -0.5131280572216151, 16618000000, 
-0.028446063417192375, -0.08179699703885646, -0.513144696654321, 16623000000, 
-0.0035185400486134125, -0.2622668582494533, -0.5129851087841794, 16628000000, 
0.052895151856537426, -0.31492626579797767, -0.512147306817769, 16633000000, 
-0.0733240856459134, -0.06634082799308998, -0.5122241081337862, 16638000000, 
0.010359818846788193, -0.280468374765486, -0.5118617243273198, 16643000000, 
-0.0759833048542318, -0.3223157644822985, -0.5106043758164447, 16648000000, 
-0.05155107255341351, -0.10055358658280812, -0.5097737301878434, 16653000000, 
0.0028072819494594156, -0.25086373412625207, -0.5090456914508327, 16658000000, 
0.07348966782309009, -0.21967786308541443, -0.5068911586286107, 16663000000, 
-0.009060023987444083, -0.22056933386977265, -0.5063247332543329, 16668000000, 
-0.0017007476981027768, -0.29617982976255175, -0.5044722044689061, 16673000000, 
-0.07902018474744445, -0.09882660640728842, -0.5027122237900051, 16678000000, 
-0.07074323810029104, -0.26992523201371427, -0.5012008909544047, 16683000000, 
0.000288549525196117, -0.338821979329211, -0.4991002324253061, 16688000000, 
-0.08714814293031597, -0.10533842604230854, -0.49776764719678696, 16693000000, 
0.14068411462002098, -0.24366188733554087, -0.4971332315317893, 16698000000, 
0.022850477414856792, -0.3447496131309295, -0.4957602406467689, 16704000000, 
-0.10862398941290485, -0.11597432614710322, -0.49519153619698525, 16709000000, 
-0.04517414593704965, -0.2511249160516297, -0.49526909962477433, 16714000000, 
-0.03967215602325463, -0.24094060435934195, -0.4949906189747293, 16719000000, 
-0.0939387588461083, -0.23199767812401148, -0.49549598193958744, 16724000000, 
0.023284208187894877, -0.3545991287388033, -0.4965117267597643, 16729000000, 
0.10544187781561, -0.1333020550191883, -0.4976049525582478, 16734000000, 
-0.04278039653654451, -0.25143172469874586, -0.4987260434928785, 16739000000, 
0.0021856635308875614, -0.30164353600814126, -0.499814887820136, 16744000000, 
-0.11115740360534518, -0.09348061226481155, -0.5001172193430057, 16749000000, 
-0.0687617524962, -0.22730664620245342, -0.5018276236172985, 16754000000, 
-0.0018659145604397014, -0.3580664702860003, -0.5018095717667118, 16759000000, 
-0.12830472516677244, -0.11450546590656857, -0.5029231923298043, 16764000000, 
-0.03013628356008139, -0.28229059489158104, -0.5035301923582549, 16769000000, 
-0.036595827457673466, -0.2577368796860431, -0.5032320661464196, 16774000000, 
-0.08748210016235768, -0.21081694073032436, -0.5034093727508014, 16779000000, 
0.00904678273278752, -0.346582692199248, -0.5031022142785162, 16784000000, 
-0.11059776990529811, -0.10806011926910283, -0.5026075688868411, 16789000000, 
-0.06518829631544987, -0.25087480523083433, -0.5023530246513169, 16794000000, 
0.14041623451745056, -0.22006726825896586, -0.5010049225316937, 16799000000, 
-0.0645244628767124, -0.21922475891197096, -0.5007914209838502, 16804000000, 
0.018257131983835183, -0.30402381577104826, -0.5004334885709211, 16809000000, 
-0.11872192161462748, -0.10973970089191279, -0.49936384834702996, 16814000000, 
-0.03269960252916077, -0.22921260379010633, -0.4993199564547846, 16819000000, 
0.0007882939454505692, -0.3435695292224374, -0.4988609323393731, 16824000000, 
-0.06627151131863421, -0.17637333108622127, -0.4986662582043126, 16835000000, 
-0.04566184636252787, -0.2005207840665244, -0.4976447971827851, 16840000000, 
-0.06271595089440829, -0.23178414393323601, -0.4984777643043678, 16845000000, 
-0.05252252565340844, -0.2807768746518239, -0.49860007312259397, 16852000000, 
-0.13954565465368376, -0.11452125398739385, -0.4998697460487816, 16857000000, 
0.0005044522417225472, -0.2197147891043421, -0.5015160383914951, 16862000000, 
0.03184610084318843, -0.25005236446609325, -0.5032698191613, 16869000000, 
-0.04052660206499561, -0.127759494592151, -0.5047385891221133, 16874000000, 
-0.014926980775378903, -0.2412990275945866, -0.5063079048998832, 16879000000, 
-0.12089772781297592, -0.2917393170553118, -0.5076682752264554, 16885000000, 
-0.11010876602357055, -0.08751452164908848, -0.5093692860382534, 16890000000, 
0.02876789410338042, -0.23321577167290575, -0.5109746396311585, 16895000000, 
0.05568835625151716, -0.27636134180093364, -0.5118907465206736, 16900000000, 
-0.007648306798842417, -0.18351900718219014, -0.5129526614084339, 16905000000, 
0.006040010766820404, -0.24885969639057792, -0.5137601327948027, 16910000000, 
-0.10865423824442808, -0.25948787152559616, -0.51334766727776, 16915000000, 
-0.14045167909966955, -0.22658568474398896, -0.5138047833357416, 16920000000, 
0.035429439812650856, -0.26130459420326463, -0.5135065704722669, 16925000000, 
-0.06179313420564348, -0.24092068638562011, -0.513211124738415, 16930000000, 
-0.15449371438873888, -0.21427589439592667, -0.5124413309754308, 16935000000, 
0.0411400679667091, -0.2108936719572211, -0.5126398208179467, 16940000000, 
-0.02392855469495436, -0.27073939946631476, -0.5109965232138717, 16950000000, 
-0.05045244606023217, -0.20189324583787005, -0.5104857984006851, 16956000000, 
-0.10351781395723283, -0.22418269121761347, -0.5098150453495272, 16962000000, 
0.0406366530379966, -0.20401731458298117, -0.5091022487776357, 16968000000, 
0.06541037988688041, -0.2681742339506831, -0.5084106328877916, 16975000000, 
-0.18941348166909183, -0.21166317153613073, -0.5079501967827934, 16980000000, 
0.017455210422975723, -0.2279302657606901, -0.506959517552734, 16985000000, 
-0.07119569592177649, -0.2325544983899086, -0.5063505805301373, 16990000000, 
-0.09856536337270537, -0.2081581076806392, -0.5055452136165665, 16995000000, 
-0.02469820279538426, -0.23619638681335883, -0.5050178983829071, 17001000000, 
0.022245944968751194, -0.31174874771311084, -0.5040963297701573, 17006000000, 
-0.13601921443250764, -0.15152696896682905, -0.5029495696879189, 17012000000, 
0.0009932966440041185, -0.25021834857040787, -0.502168757019652, 17017000000, 
0.024612688267977054, -0.31534390571825094, -0.5010362630674808, 17022000000, 
-0.12414598617215213, -0.12139793818723256, -0.5000226804852892, 17027000000, 
-0.04461932992226002, -0.2467768439283206, -0.499473659190848, 17032000000, 
0.056889151764875384, -0.22822601000641554, -0.49842007260802285, 17039000000, 
-0.07266489602675683, -0.23964096653557201, -0.4980732891649895, 17045000000, 
-0.060476228461615864, -0.21102273425194848, -0.4974472872508042, 17051000000, 
-0.06324439441116175, -0.2112130946314774, -0.49752340785627047, 17056000000, 
-0.057875119852482775, -0.22020014839964622, -0.49709117937184516, 17063000000, 
-0.04640420822169638, -0.2657656898862677, -0.49766204839516004, 17068000000, 
-0.04004002272355483, -0.2548102097654055, -0.49876018880007345, 17074000000, 
0.03824498892378443, -0.30000860697489695, -0.49850082635608983, 17079000000, 
-0.11162854829806607, -0.18136734338416888, -0.499815372528269, 17085000000, 
0.002420782252881462, -0.28831810408219194, -0.5003601348094727, 17090000000, 
-0.15297462745282775, -0.12966074486618165, -0.500686335481255, 17095000000, 
-0.04860795441070085, -0.26016805155535205, -0.5016186954699464, 17100000000, 
0.2181040046090116, -0.30111432046810666, -0.5014733619866476, 17105000000, 
-0.12224168885566881, -0.130605471641216, -0.5015569445987919, 17110000000, 
-0.05060107461163857, -0.20645214027976327, -0.5017636068061876, 17115000000, 
0.03503346510017402, -0.30569657693613395, -0.5018926024333519, 17120000000, 
-0.11449637638857778, -0.11800034951022186, -0.5015024008490454, 17125000000, 
-0.0675011836069001, -0.24343101293683617, -0.5018067544948672, 17130000000, 
-0.025891688857783753, -0.23894342474472766, -0.5011560990140597, 17136000000, 
-0.045225900983496325, -0.22423181541139608, -0.5011554004976126, 17141000000, 
0.006633400193241542, -0.30405386088718134, -0.5007017580560588, 17146000000, 
-0.1535352694805691, -0.11123587373397598, -0.49998004378700095, 17151000000, 
-0.04644784183000583, -0.2578366899821709, -0.5001472643613059, 17156000000, 
0.022176409137358424, -0.2911522169075586, -0.49935294227053295, 17161000000, 
-0.10512475520028816, -0.15530382039218146, -0.4994817840971013, 17166000000, 
0.08829132712747771, -0.27570841199849866, -0.4993661541066073, 17172000000, 
-0.002402834786517642, -0.29039047289279213, -0.49945537143381696, 17177000000, 
-0.06971477999219196, -0.14051695177422854, -0.5004313549792366, 17182000000, 
-0.026080811159371477, -0.23580470987304603, -0.5013195285762168, 17187000000, 
-0.12133383118932566, -0.21604474130695306, -0.5026038220716034, 17192000000, 
0.02431385968450882, -0.24058344238124788, -0.5029184810657987, 17197000000, 
-0.027037306319022812, -0.22320602871640124, -0.504307006889615, 17202000000, 
-0.19424467396694672, -0.2922691528166074, -0.5049596332084544, 17207000000, 
-0.0386920761206266, -0.17689296652946918, -0.5074805550917443, 17212000000, 
-0.028398635751866796, -0.229368989666063, -0.5081368752797617, 17217000000, 
-0.19619471363470303, -0.25496541821170554, -0.5099364636507492, 17222000000, 
0.06087285667474555, -0.260392864254398, -0.5109467052031688, 17227000000, 
-0.08248764437490594, -0.25058755520076087, -0.5120109891679026, 17232000000, 
-0.16216132032988514, -0.23265477639326237, -0.5128206701836301, 17237000000, 
0.2672179737497279, -0.23626432351063686, -0.5128783056907622, 17242000000, 
0.012722311937836978, -0.23455966079467608, -0.5129131833428825, 17247000000, 
-0.16410294313662846, -0.3117616805918318, -0.5125287686520886, 17252000000, 
0.013671930375809941, -0.20874081435232741, -0.5124417074960765, 17257000000, 
-0.001174403325532803, -0.23557453413744056, -0.5120154775102862, 17262000000, 
-0.15735526538231806, -0.19094377132244952, -0.5109127954275564, 17267000000, 
0.04761923907387842, -0.2498643069102347, -0.510389536311266, 17272000000, 
-0.045077420435370004, -0.3174264754824789, -0.5089187111335053, 17279000000, 
-0.09805873509895995, -0.19499558333546227, -0.5087648509921499, 17285000000, 
-0.016324876461410055, -0.23730611562877724, -0.5074862506379653, 17291000000, 
-0.1687659847752086, -0.23061844819946076, -0.5073579413604891, 17296000000, 
0.0711480887234534, -0.24814804093061624, -0.506680637194936, 17301000000, 
-0.04956513318057948, -0.2995122422869746, -0.5056307608480408, 17306000000, 
0.05813707086274312, -0.17367738965789972, -0.5055957364843554, 17311000000, 
-0.019945892170708183, -0.2636874647731609, -0.5055354356632145, 17316000000, 
0.05349407469732792, -0.292701548562216, -0.5049903378459903, 17321000000, 
-0.12323345732313827, -0.17404591733143393, -0.503103864058214, 17326000000, 
-0.056710047912618786, -0.21689426691452474, -0.5025707018604274, 17331000000, 
0.027638022876857, -0.2862374239565975, -0.5018977575123026, 17336000000, 
-0.11377661107589497, -0.17933809735815584, -0.5000449547934211, 17341000000, 
0.27813371459138897, -0.26358280069950124, -0.49979317570893145, 17346000000, 
-0.008041735705290584, -0.2534169610450257, -0.4979315642119423, 17351000000, 
-0.16922278614169445, -0.18299550566793094, -0.4977464836187183, 17356000000, 
-0.036044901202161764, -0.2599684047636679, -0.4973573464724789, 17361000000, 
0.05454861522762732, -0.32354509873700354, -0.4966344847743906, 17366000000, 
-0.2786756456022439, -0.06955209198159848, -0.49645550300759894, 17371000000, 
-0.042614456587461554, -0.24645560420660548, -0.49694417422321374, 17376000000, 
0.028461159632616074, -0.31519309927754807, -0.49739733648849677, 17381000000, 
-0.1527197658077662, -0.15596410160084867, -0.4979817689420491, 17386000000, 
0.025272132286205874, -0.27819662634454184, -0.49871578815724643, 17391000000, 
-0.151777412228654, -0.16347883347674272, -0.49902883932268255, 17396000000, 
-0.04753417453990082, -0.21431939011897919, -0.5000276381727935, 17401000000, 
-0.03311561492482834, -0.22618571260718154, -0.5005236276333245, 17407000000, 
0.1117530119293741, -0.22517465976249199, -0.5012258565230644, 17413000000, 
0.01651920167791171, -0.26687483877090373, -0.5014727317199197, 17417000000, 
-0.16578004649575853, -0.1774008430097624, -0.5018278283369977, 17422000000, 
-0.03731262412148545, -0.28171506680178454, -0.5022681565012529, 17428000000, 
0.036597701397220614, -0.2914375976889805, -0.5020095738437019, 17433000000, 
-0.1272191250450032, -0.17130631147391168, -0.5016578990741836, 17438000000, 
0.15680941402596463, -0.23882072872837995, -0.5014201811438903, 17445000000, 
-0.14847059931241774, -0.17501705965138906, -0.5011206003233571, 17450000000, 
-0.04597640814839746, -0.2589304447438674, -0.5010020591904916, 17455000000, 
0.02163976069034857, -0.2924730728731187, -0.5003595761183112, 17460000000, 
-0.15219771268385376, -0.18290742170267632, -0.49996746291408345, 17465000000, 
-0.05020699202258537, -0.24032146609099167, -0.5000158054015957, 17470000000, 
0.04884117192658895, -0.26314149331207054, -0.4990488507816244, 17475000000, 
0.24680525884534749, -0.15773419831563176, -0.49929955503085227, 17480000000, 
-0.0651759626922101, -0.23332416448010634, -0.4990301401777101, 17486000000, 
-0.06609161168453906, -0.3096156790985833, -0.4992260116068843, 17491000000, 
-0.07715616968478972, -0.15634237420570193, -0.4998814267750924, 17496000000, 
-0.01634073093704123, -0.19879038759136133, -0.5008112954040507, 17501000000, 
0.0027174259766305706, -0.2945219170181317, -0.5011445809774272, 17506000000, 
-0.10927249063245909, -0.17465021778118006, -0.5024687408788217, 17512000000, 
-0.004657509732833923, -0.2046819002587787, -0.5035165540070761, 17517000000, 
-0.10414167418946993, -0.2957466751897005, -0.5043184849274691, 17522000000, 
-0.07206715766976848, -0.1921203597074428, -0.5060164193077783, 17527000000, 
0.007201093864988578, -0.22215672623100524, -0.50688436303113, 17532000000, 
-0.061578736519311436, -0.22556229650442572, -0.5073289426182684, 17537000000, 
-0.11716711610616493, -0.23521414612891078, -0.5080347555766423, 17543000000, 
0.18265494324802845, -0.23132041050245322, -0.5090683110513158, 17548000000, 
0.005098554181040774, -0.26190592343278674, -0.5091864584450219, 17553000000, 
-0.12198772121512165, -0.22723252814574066, -0.5092027534650196, 17558000000, 
-0.014776135980700796, -0.24502674733361882, -0.5089029032080431, 17563000000, 
-0.02089036188111047, -0.22605163563706987, -0.5082226578427307, 17568000000, 
-0.08083038638922056, -0.3019914785956819, -0.5075069194595576, 17573000000, 
-0.062228324685135804, -0.17314992793822115, -0.5069178507988837, 17578000000, 
0.21828324293144302, -0.2264714886277127, -0.5067935283700572, 17583000000, 
-0.1239657135642699, -0.23505832387407596, -0.5056526407703746, 17588000000, 
-0.08330781375590106, -0.18038638368654633, -0.5052392367270804, 17593000000, 
0.024775550778731885, -0.20301431340063802, -0.5052898164938197, 17598000000, 
-0.03273941563920874, -0.2722801093380744, -0.5044176408953949, 17603000000, 
-0.10838487950898255, -0.23474933822712113, -0.5034986415371868, 17608000000, 
-0.01503853853034421, -0.260363015213542, -0.5031621829959956, 17613000000, 
0.22546611205339198, -0.24951230566399657, -0.5023839735395512, 17619000000, 
0.013723455657613466, -0.29414513688419835, -0.5013807584125864, 17625000000, 
-0.13397812632345665, -0.18308533352116957, -0.5001485265875354, 17630000000, 
-0.033402792442912735, -0.2129023392748211, -0.49942984099928783, 17635000000, 
-0.04166048763405231, -0.22163031876699132, -0.4984596346464432, 17640000000, 
0.008371351814844916, -0.26679750842210465, -0.49751245445524356, 17648000000, 
-0.16668958680654186, -0.15987422319452282, -0.49729224305084374, 17653000000, 
-0.052511275731758636, -0.2343565947491378, -0.49734204323518716, 17658000000, 
0.0387923480013366, -0.30123762019919825, -0.4975673394141298, 17663000000, 
-0.14388929283538568, -0.16064496981758433, -0.4973605480153866, 17668000000, 
-0.055077302563603256, -0.2245396900668227, -0.4982989118511259, 17673000000, 
0.052061778573345555, -0.2671286782701972, -0.498807892200949, 17678000000, 
0.0363452898948346, -0.23018322603391558, -0.49897682310223135, 17683000000, 
-0.04923523485731382, -0.27507632328053966, -0.49938926291646313, 17688000000, 
-0.07041788956020444, -0.24800028466104837, -0.5002147114914064, 17697000000, 
-0.0710449202199273, -0.2239743232733563, -0.500953372761159, 17706000000, 
-0.07951470797463801, -0.21079850925604038, -0.5012598215719144, 17711000000, 
0.13302570813069634, -0.2821574820168517, -0.5012721499862066, 17716000000, 
0.08304045770989618, -0.27948645718474996, -0.5014168333321323, 17721000000, 
-0.16391027481029052, -0.18547956294569054, -0.5012323963713656, 17726000000, 
-0.06525972046897252, -0.2500438422608643, -0.5011731186153766, 17731000000, 
0.015189318475048775, -0.287725425570852, -0.5007676140126488, 17736000000, 
-0.1628080192604703, -0.19072561026854254, -0.500815139511844, 17741000000, 
-0.05873215156134159, -0.23559855616262843, -0.5004090308175047, 17747000000, 
0.14205450894814992, -0.2714250615660646, -0.5001185334878383, 17752000000, 
-0.05849553969813394, -0.25760648427617844, -0.5000957661751325, 17757000000, 
0.04422665206389513, -0.24581118875089142, -0.49984402632759206, 17762000000, 
-0.11465427165597623, -0.18949399815792953, -0.4994360470333491, 17767000000, 
-0.054643968255509524, -0.2510430028405979, -0.49940612703091647, 17773000000, 
0.00878269215946768, -0.2694439226562931, -0.49892681225150415, 17778000000, 
-0.17318922384161226, -0.1592507331808034, -0.4993139553864611, 17783000000, 
-0.046470563655140816, -0.18960832539518246, -0.4994999710246809, 17788000000, 
0.03538978080889335, -0.268140350616482, -0.4997411465246156, 17793000000, 
-0.14876453793517727, -0.20943163649067498, -0.49948834708311446, 17798000000, 
-0.055798870897141944, -0.22177465071334918, -0.4996698903285028, 17803000000, 
-0.03423828676628181, -0.2078401940045061, -0.49976996710405086, 17808000000, 
-0.04538775412857428, -0.23327387935308816, -0.5000772867850883, 17813000000, 
0.0679233833851963, -0.25357864948409575, -0.5001785475580646, 17818000000, 
0.005839898239252371, -0.2428730635932574, -0.5004129289684031, 17823000000, 
-0.030485531565033867, -0.2535532768152725, -0.500389040745069, 17828000000, 
-0.1347069585067109, -0.16993804102361523, -0.5012676969169119, 17833000000, 
-0.059443648683604036, -0.20497476731084252, -0.5012038596949249, 17838000000, 
0.015879909214180372, -0.24359448809494863, -0.5017281894973207, 17843000000, 
-0.20665533277757972, -0.18765341390238024, -0.5022626011162257, 17848000000, 
0.12623217762260264, -0.25518953151116175, -0.5030118133368011, 17853000000, 
-0.055672831229105525, -0.21909870412504684, -0.5028931545345835, 17858000000, 
-0.14224148169615236, -0.24907713098822298, -0.5034357211122255, 17863000000, 
-0.029522922554408804, -0.213053144861585, -0.5044855338806132, 17868000000, 
-0.010833542772577653, -0.2413834516375584, -0.5046993841831954, 17873000000, 
-0.05843691032736252, -0.27005667307185216, -0.5049366434698953, 17878000000, 
-0.08430245161955141, -0.21844492568367382, -0.5056319724472329, 17883000000, 
-0.03437039246792745, -0.24023179611467443, -0.5050286855859971, 17888000000, 
-0.031187047445057292, -0.23488127637590198, -0.505163111668554, 17893000000, 
-0.11187991999231696, -0.20833921560045487, -0.5058273635995333, 17898000000, 
0.002303635672748751, -0.28999464526624497, -0.5052707111462894, 17903000000, 
-0.056597156653680564, -0.22944541273099092, -0.5047888421599606, 17909000000, 
-0.08759356514125347, -0.207639877675282, -0.5043535644662213, 17914000000, 
-0.008879487220380265, -0.24513457907734512, -0.5042586271991367, 17919000000, 
0.17105325346365297, -0.20585336254858266, -0.5030826307926758, 17924000000, 
-0.016250740549856438, -0.2728050937926938, -0.5016202648088846, 17929000000, 
-0.07136877213745285, -0.2454528206685454, -0.5013063336592388, 17934000000, 
-0.057793432271454004, -0.2552983406941805, -0.5000820591102353, 17939000000, 
0.016529538422991007, -0.2245204844798225, -0.49909075735526803, 17944000000, 
-0.09170360611185727, -0.21652415723033325, -0.49835953025117513, 17949000000, 
0.14217807785393682, -0.22454509056622335, -0.4980518772638505, 17954000000, 
-0.02392485672824533, -0.23396222440328873, -0.49739069973641387, 17959000000, 
-0.041504783928366464, -0.2341731783805924, -0.4972599407071469, 17964000000, 
0.0029788937041164837, -0.2377292667294895, -0.49701440793520335, 17970000000, 
-0.23673736509401716, -0.21824942845696094, -0.49716927899375285, 17975000000, 
-0.0767473389213721, -0.24090449516554494, -0.4972177506229303, 17980000000, 
0.04548120902463883, -0.2511325468122268, -0.4976499648771062, 17987000000, 
0.009644640940915578, -0.17041100855274016, -0.4990096660195862, 17996000000, 
0.027747178707620578, -0.2535099355992618, -0.4998648287078876, 18002000000, 
-0.1122620645205679, -0.19909067598472632, -0.5007771117333357, 18011000000, 
0.05700865441303108, -0.2689378180260181, -0.5009870253128216, 18016000000, 
-0.17889207725918796, -0.2100628375922817, -0.5014271623182658, 18021000000, 
0.2248711339225791, -0.23566851100639205, -0.5014281484185172, 18026000000, 
0.06167835282403936, -0.2582029580292286, -0.5019155147045808, 18031000000, 
-0.16278770191379563, -0.2236324100023463, -0.5016520111395156, 18040000000, 
-0.0001927365602675873, -0.23015408821045838, -0.5009184599545922, 18045000000, 
-0.16903983241453785, -0.24759098379096264, -0.5006593803667758, 18050000000, 
-0.03221060146154263, -0.26330526924702224, -0.5005923109702752, 18055000000, 
0.07428226360745022, -0.2447487790027703, -0.5000638256154447, 18060000000, 
-0.16864960251983652, -0.2357332314299146, -0.4997701182952207, 18065000000, 
-0.05827465940290851, -0.23812294470676543, -0.4996343212864986, 18070000000, 
0.05470463289883849, -0.23195315319009546, -0.49895816918538033, 18075000000, 
-0.19714029809333294, -0.22362593079071388, -0.4990541520992204, 18080000000, 
-0.061411634752996255, -0.23145343357192216, -0.49894871111126843, 18085000000, 
0.23514133002509127, -0.24438202059969022, -0.49916867252160535, 18090000000, 
-0.22251162881315212, -0.2057123517823676, -0.4994170937839816, 18095000000, 
-0.05339314331955485, -0.27794522104772007, -0.49909901071413, 18102000000, 
-0.07022057348903722, -0.23086161610057604, -0.49919772810213325, 18107000000, 
-0.05304562547070888, -0.23683526731869514, -0.4994677334868158, 18112000000, 
0.07296230041733429, -0.27776263366502285, -0.4996555241315844, 18117000000, 
-0.22621664925195123, -0.23595919648722388, -0.4999476634032576, 18122000000, 
0.19561109522189293, -0.23141219153100084, -0.5003264322693649, 18128000000, 
-0.08369768958251661, -0.21911635894807982, -0.5003856367620053, 18133000000, 
-0.0880688504472991, -0.24636814142859406, -0.5006118785496169, 18138000000, 
-0.028605319467142048, -0.2115312236518089, -0.5007142426719444, 18143000000, 
0.09240161422657482, -0.23827047767997964, -0.5005010770367108, 18148000000, 
-0.17082391749142625, -0.2245143239012651, -0.5003580742780249, 18153000000, 
-0.04309527871428674, -0.22199385906600833, -0.5006413363183032, 18158000000, 
0.2396735603334595, -0.26162378082130305, -0.5003257281966116, 18163000000, 
-0.2764068148934118, -0.23735611567045975, -0.5000189163067049, 18168000000, 
-0.05854368499903982, -0.28028172548821967, -0.500317148453142, 18173000000, 
0.09725821431661356, -0.2627734748774956, -0.4998361833180777, 18178000000, 
-0.2468369047098818, -0.25610167725265065, -0.5002246060099816, 18183000000, 
-0.06027976591461622, -0.2391199956002728, -0.499698622361985, 18188000000, 
0.12766793285618114, -0.22362416087979103, -0.49927125110792997, 18193000000, 
-0.2686598966267286, -0.2722335454135739, -0.499508515579221, 18198000000, 
-0.06253005338224134, -0.24021614625273746, -0.4998748378866454, 18203000000, 
0.12970401607545018, -0.19126007504171005, -0.49956503900120297, 18208000000, 
-0.2899917896082778, -0.2716499980659733, -0.4992152714061632, 18213000000, 
-0.012935460091982983, -0.22002008150266916, -0.49932488260650754, 18218000000, 
0.022328201831958445, -0.20053903747482957, -0.49984890650273567, 18223000000, 
-0.02622788128808565, -0.23770770620379567, -0.4999328294408126, 18228000000, 
-0.03944838959762098, -0.21395008753627287, -0.5000068118378461, 18233000000, 
0.08016451111263118, -0.19848633565504836, -0.49940746650065987, 18238000000, 
-0.18622783543025453, -0.2418608654335695, -0.5002516387531395, 18243000000, 
-0.04757682363371465, -0.2551566245611837, -0.5001473724069885, 18248000000, 
-0.04061222558664561, -0.23483588828398858, -0.5001141385878686, 18253000000, 
-0.07335342265108256, -0.24393050653540593, -0.5000735270078296, 18258000000, 
-0.061657642006575274, -0.255744919826134, -0.5001066811195513, 18263000000, 
-0.04192578537320303, -0.24086185422800205, -0.5006317378019324, 18268000000, 
-0.06546306089453635, -0.2175102010190271, -0.5002175202152643, 18273000000, 
0.03820442170877486, -0.2550019014044353, -0.5002139791030745, 18278000000, 
-0.16477146668140705, -0.20613335694685356, -0.5007145962384536, 18283000000, 
-0.002114449264320882, -0.23626222198040878, -0.4999502577735518, 18288000000, 
-0.04468243148313129, -0.2512713876050019, -0.49981552356773734, 18293000000, 
0.12800912014611532, -0.24513521253589726, -0.5003992379829425, 18298000000, 
0.05409947432617877, -0.26353568055401916, -0.5001159450188674, 18303000000, 
-0.12985183801625916, -0.23623724912030347, -0.4998875258795628, 18308000000, 
-0.08089285327575355, -0.2500575889102644, -0.4998320674687121, 18313000000, 
0.002158205926815971, -0.28074830145690294, -0.5001322045622143, 18318000000, 
-0.09606615921728036, -0.20696823451510915, -0.5000484552367116, 18323000000, 
-0.05038394593689877, -0.262051342397727, -0.49987498168386557, 18329000000, 
-0.004698782035747494, -0.2992046028645843, -0.4999684505945255, 18334000000, 
-0.09869986313908193, -0.16197660790894153, -0.5001994426548427, 18339000000, 
-0.013651960724715112, -0.23526475315805326, -0.5001420647054173, 18345000000, 
-0.01834789781350694, -0.27434707463732383, -0.4999474651330777, 18350000000, 
-0.10144980847128009, -0.15184516838486092, -0.5000088030440561, 18355000000, 
-0.06879043634113705, -0.24031407693388473, -0.5004119787663627, 18360000000, 
0.12344674027798071, -0.28810340373461485, -0.5004127422611635, 18365000000, 
-0.24952283169083903, 0.018011277936571972, -0.49994947659872946, 18370000000, 
-0.07047188146927727, -0.23764069793211315, -0.5005788650223213, 18375000000, 
-0.03290253374660356, -0.223271094824866, -0.5003692214924859, 18380000000, 
-0.06582178489849896, -0.21665549082978394, -0.5005127980665753, 18385000000, 
-0.015050526458404361, -0.30950802559193336, -0.4999909070727752, 18390000000, 
-0.0684377496040281, -0.1545390153494767, -0.5003212737332373, 18395000000, 
-0.03928805957932905, -0.2788168892461212, -0.5003760620068799, 18400000000, 
-0.03354443828733716, -0.3000242337108481, -0.5003410403622341, 18405000000, 
-0.08698030542528465, -0.12913144038685673, -0.5003644344384024, 18411000000, 
-0.07183199584889716, -0.24545007305430502, -0.5002965841153509, 18416000000, 
-0.02867479509131096, -0.30181852944897447, -0.5000428399038923, 18421000000, 
-0.05710955506200065, -0.1101535932511605, -0.4999813923614412, 18426000000, 
0.14479535535678217, -0.23117474198479043, -0.5004887131176651, 18431000000, 
-0.0726513403152468, -0.2275710757180952, -0.4999926491827361, 18438000000, 
-0.06375253186993672, -0.26284007444935253, -0.5005015359591506, 18443000000, 
-0.030587587031240586, -0.24949002203111598, -0.5006505029109448, 18449000000, 
-0.0709720702186814, -0.21610748114673, -0.4999972774646868, 18455000000, 
-0.0369009737476388, -0.255498486105439, -0.5002125015331778, 18461000000, 
0.05564880855704375, -0.26168283319919494, -0.5005661053445604, 18466000000, 
-0.051101893979615745, -0.2684669035091721, -0.4999307241650596, 18471000000, 
-0.06307819238270711, -0.2567971282465436, -0.49994772342411875, 18476000000, 
-0.07618319118904807, -0.252492173698127, -0.5001891763562675, 18481000000, 
-0.051795525120594516, -0.23558533174010832, -0.49987896867326187, 18488000000, 
-0.15148106507586634, -0.2924660185122287, -0.5008287343796225, 18493000000, 
0.13478076940804268, -0.1721938420371362, -0.5023686913682293, 18499000000, 
-0.04163842535342953, -0.23344803429155125, -0.5028101312453492, 18504000000, 
-0.12390548123381182, -0.1921341078025233, -0.5039817869571045, 18509000000, 
0.0017843515111221064, -0.28426853021554666, -0.5051562595651098, 18514000000, 
-0.04372279573602038, -0.26701964209859474, -0.5058548191042248, 18519000000, 
-0.09203429501330083, -0.22935491503798575, -0.5072700463859671, 18525000000, 
0.00509046649720961, -0.2653855975610146, -0.5085496457208531, 18530000000, 
-0.11202121689563606, -0.3427503425120313, -0.509417221281436, 18535000000, 
-0.020861687711257636, -0.19579648081938392, -0.5101619464061573, 18545000000, 
-0.16863075447073933, -0.31405639981867156, -0.5096799627668214, 18550000000, 
0.060507851314197586, -0.09615856407868442, -0.5100671985729074, 18555000000, 
-0.011135333149813393, -0.22554807149077272, -0.5096298357025028, 18560000000, 
0.03325251045199581, -0.2523961340415748, -0.5086573406794594, 18565000000, 
0.008571339512086234, -0.22779314013806085, -0.5077084598134808, 18575000000, 
-0.09342691424307749, -0.21560330264469013, -0.5070514570960867, 18580000000, 
0.037767094514135145, -0.23210275088378834, -0.5063721854756191, 18585000000, 
-0.10442883831985077, -0.3785064337776274, -0.506182516334576, 18591000000, 
-0.013096864314893038, -0.11692694516339876, -0.5054898093861919, 18596000000, 
0.04172961763298772, -0.3050907522846107, -0.504647470569407, 18602000000, 
0.021157310273649255, -0.09618625298889664, -0.504740485719443, 18607000000, 
-0.008406516017022648, -0.2521256159448917, -0.5046184872021068, 18612000000, 
-0.16695566488461505, -0.32377675972729214, -0.5042693797632998, 18617000000, 
0.10464441333083929, -0.08645161532791369, -0.5041958467553616, 18622000000, 
-0.035336928411165584, -0.2784956425527966, -0.5050830601859722, 18627000000, 
-0.2063912775550918, -0.34077078438929337, -0.5044426336279384, 18632000000, 
0.25153174205923445, -0.11469871834600956, -0.5053843027762112, 18637000000, 
-0.03877759707894372, -0.23979869489755457, -0.5053498298998542, 18642000000, 
-0.14151651816863162, -0.34783330560423537, -0.5051545204949834, 18647000000, 
0.05047280355514605, -0.10768652689721812, -0.5057155903423985, 18652000000, 
-0.08451033665761058, -0.3677269493957444, -0.5058099472135642, 18657000000, 
-0.087786400822332, -0.12580845113636127, -0.5057849676493072, 18664000000, 
0.10767354056628606, -0.25950147735424056, -0.505990649194862, 18669000000, 
-0.2282278469180987, -0.3593421604645246, -0.5055630795518532, 18674000000, 
0.05145283868347848, -0.10124571741005342, -0.5060584808402616, 18679000000, 
-0.02112298488518155, -0.2992762233733777, -0.5059214956858248, 18685000000, 
-0.14720751852521657, -0.35525907660165434, -0.5059136793249785, 18690000000, 
0.026337057512404186, -0.1336852823839282, -0.5059851054167362, 18695000000, 
-0.2154253833250266, -0.36435161490414886, -0.5057321567371286, 18700000000, 
0.1256698263042726, -0.040203517149794664, -0.5055357989316849, 18705000000, 
-0.0023294785524169623, -0.2653111428518762, -0.505834531411743, 18710000000, 
-0.19125738804175008, -0.3724595896459611, -0.5047912858968632, 18715000000, 
0.07387935777574231, -0.08665728608259879, -0.5050069376375356, 18720000000, 
-0.13719989591663495, -0.39187108751442673, -0.5044805831654761, 18726000000, 
0.02803077641188886, -0.11737470710189754, -0.5049220441354187, 18731000000, 
-0.03702457694182103, -0.2590000092167111, -0.5053195862110613, 18736000000, 
-0.03597010399791439, -0.38037984105064476, -0.5055273055835688, 18741000000, 
0.14272616142165145, -0.011254691924033503, -0.5059929866772439, 18746000000, 
-0.0263686941445262, -0.2560428864459367, -0.5068514439723498, 18751000000, 
-0.26165964412666476, -0.3903314028560155, -0.5070536211333007, 18756000000, 
0.11908350064653389, -0.0795839239596059, -0.5076705920836507, 18761000000, 
-0.021700198559675796, -0.28448320830516793, -0.508230593358475, 18766000000, 
-0.17819156990722299, -0.41961315742861544, -0.5080255444174546, 18771000000, 
0.11771215748320493, -0.027425114098395986, -0.508985975203254, 18776000000, 
-0.04050884919268668, -0.2585673142587613, -0.5091144303688233, 18781000000, 
-0.09790947362330917, -0.19610049649048797, -0.5090092742924178, 18786000000, 
-0.02145210937296365, -0.2645427592779228, -0.5094951897737923, 18791000000, 
-0.18139646700140222, -0.4283679455126353, -0.509128988954475, 18796000000, 
0.013204597481366993, -0.03484400088731066, -0.5091091410620471, 18801000000, 
0.20023089010755146, -0.3191053768957791, -0.5094073580985834, 18806000000, 
-0.2348309048449943, -0.4162446762322916, -0.509171782822328, 18811000000, 
0.09824339417515282, -0.07641150150024907, -0.5099632709310916, 18816000000, 
-0.0034113193367737854, -0.2836489094488195, -0.5096604374742567, 18821000000, 
-0.25529430243659723, -0.37033254362160223, -0.5098435365759424, 18826000000, 
0.10544438782820098, -0.024976998805077973, -0.5098276582109375, 18831000000, 
-0.039605806251660325, -0.28293662308789513, -0.5096861964250666, 18837000000, 
-0.16821462043990584, -0.39247463995819715, -0.5094912237478836, 18842000000, 
0.08683143009630905, -0.09972046733461927, -0.5097298771036, 18847000000, 
-0.14626987590666576, -0.3488232425737854, -0.5096395529437321, 18853000000, 
-0.10656876278369751, -0.2417094224100695, -0.5091804498212182, 18858000000, 
0.08011139820826023, -0.1361220982738747, -0.5096832768217223, 18863000000, 
-0.16671020179205687, -0.377964644847416, -0.5088679633331651, 18868000000, 
0.1748358431037747, -0.06925560453467863, -0.5094526198226684, 18873000000, 
0.0065066365877389995, -0.2633710820702849, -0.5093587660694497, 18878000000, 
-0.21537392147980663, -0.35023581188765157, -0.5094955326227706, 18883000000, 
0.11929867831365493, -0.07686547203512564, -0.5105614732487259, 18888000000, 
-0.06189261346197553, -0.3092276420223906, -0.510847852201403, 18893000000, 
-0.20990637220195338, -0.3862419800765025, -0.5108746113664233, 18898000000, 
0.08567841819916532, -0.06922010407665657, -0.511781450875843, 18903000000, 
-0.03654335046953483, -0.3226065715593168, -0.5119738041672808, 18908000000, 
-0.22070638378191149, -0.366137420461489, -0.511665844553071, 18913000000, 
0.08136052895986777, -0.09887444949090698, -0.5126689474854719, 18918000000, 
-0.1581812663031621, -0.35143038104141044, -0.5121077773346006, 18923000000, 
-0.029427576588533722, -0.11337011935076663, -0.511981231652707, 18928000000, 
-0.025476236067253202, -0.2892166007593018, -0.5117183394138316, 18933000000, 
-0.24624998127913356, -0.32597434160844047, -0.5108823180191675, 18938000000, 
0.22133698063329102, -0.14091607888805288, -0.5105939649813265, 18944000000, 
-0.16233723390334945, -0.33935545100873205, -0.5102288400123406, 18949000000, 
-0.07151938405051679, -0.27428717872113384, -0.5097401584079625, 18954000000, 
0.055492435448736444, -0.21153707465318253, -0.5093022475400729, 18960000000, 
-0.16253181622730598, -0.38456752896431345, -0.5085171651889323, 18965000000, 
0.06540500684477349, -0.1117356953880197, -0.5084316620759861, 18970000000, 
-0.11128172655046004, -0.3702050375011418, -0.5074985881117756, 18975000000, 
-0.03527115049377969, -0.1309793588898519, -0.5069075132925953, 18980000000, 
-0.00762611549276975, -0.26312745210937766, -0.5062905187866324, 18985000000, 
-0.13289555489281057, -0.36494643820322004, -0.5058382966553189, 18990000000, 
0.01520014704816328, -0.04410943344983335, -0.5056722083069116, 18995000000, 
-0.031093982896836788, -0.30977870000216684, -0.5056977085752719, 19000000000, 
-0.12364208839825629, -0.24424626706138455, -0.5053466236325841, 19005000000, 
0.21495493087924916, -0.24174609500372948, -0.5057180624127051, 19010000000, 
-0.20127275910604506, -0.37737092810302947, -0.5051884921247695, 19015000000, 
0.058136933056010774, -0.1011337388695101, -0.5051104842628935, 19020000000, 
-0.04388060098384925, -0.41003795888971717, -0.5051584989538122, 19025000000, 
-0.12555062991573954, -0.16155511002786907, -0.5049883607803549, 19030000000, 
0.05151426830196893, -0.27162410170845985, -0.5053428831878451, 19035000000, 
-0.09865920895443589, -0.3620826105094973, -0.5051329970666499, 19040000000, 
-0.08494550841779727, -0.026115289169072832, -0.5049007054540776, 19045000000, 
0.017473374188948603, -0.26482722425010624, -0.5057408612181412, 19050000000, 
-0.13404646143442345, -0.37837597110027543, -0.5055160380020974, 19055000000, 
-0.004565365882430353, -0.08375562704110553, -0.5059977051083873, 19060000000, 
-0.03846496329028738, -0.29282052792867747, -0.5061079446726428, 19065000000, 
-0.09278984671731197, -0.3418726358268168, -0.5054707553712039, 19070000000, 
0.010573434960146417, -0.09691140127277657, -0.5061627722115128, 19075000000, 
0.1677775687454766, -0.30376914245451514, -0.5060736248225789, 19080000000, 
-0.1150660726796095, -0.3377711563751244, -0.505457316477841, 19085000000, 
-0.007345494786291538, -0.14155582743125733, -0.5058490183101997, 19090000000, 
-0.05296854910445248, -0.3629527186458945, -0.5053948275636395, 19095000000, 
-0.11022888525644362, -0.09875791357262677, -0.5052789086946831, 19100000000, 
-0.019090846315308732, -0.3026965498581475, -0.5052868762709688, 19106000000, 
-0.17161227274584245, -0.4167336878740596, -0.5049571002054453, 19111000000, 
0.03896643374232641, -0.08843476682430093, -0.5052381760202151, 19116000000, 
-0.1447972262832243, -0.2920726647482676, -0.5052575867125778, 19122000000, 
0.028760458740640104, -0.13731448391061365, -0.5058810888048778, 19127000000, 
-0.029577406527248537, -0.288816245847024, -0.5062715122060324, 19133000000, 
-0.11822301513027143, -0.2210319424814451, -0.5066406128699786, 19138000000, 
0.01895129578223942, -0.3018218986851652, -0.5072880223206916, 19143000000, 
0.031819977835406306, -0.31640293622877874, -0.5074172698032969, 19148000000, 
0.0052927049306686486, -0.19349588977723642, -0.5080873333300967, 19153000000, 
-0.017020215465515215, -0.27933610764571554, -0.5083852014282791, 19158000000, 
-0.16629592976695073, -0.20882369477801666, -0.5085639624768598, 19164000000, 
-0.012165591404737188, -0.2966742840433171, -0.5092250125613488, 19170000000, 
-0.17692960477567357, -0.3089855777101917, -0.5092520406043385, 19175000000, 
0.020418881296599082, -0.164087046918778, -0.5100035985479877, 19180000000, 
0.026760596472831855, -0.28236518690063395, -0.5103736070604687, 19185000000, 
-0.17270816823014845, -0.2718702856144385, -0.5102507255825565, 19190000000, 
0.015574011952230099, -0.22175076415920197, -0.5109762500612829, 19195000000, 
0.00837674086056189, -0.28869190104095926, -0.5104978392624189, 19200000000, 
-0.24274815661093885, -0.2725395968267035, -0.5102404508477666, 19205000000, 
0.08056266355176694, -0.13830938203856258, -0.51080638763092, 19210000000, 
0.1851578676129762, -0.3141369147224088, -0.5111795075661233, 19215000000, 
-0.1991199474103887, -0.2672207691256134, -0.5113618249918725, 19220000000, 
0.0547407682727612, -0.17869558736809238, -0.511950987395461, 19225000000, 
-0.020800665608943635, -0.3139745150450106, -0.5118921983455719, 19230000000, 
-0.2271605985799639, -0.26618354031453745, -0.5120089678141124, 19236000000, 
0.04896349068104061, -0.22287473276090916, -0.5121361071176677, 19241000000, 
-0.10443026088850196, -0.27107696004166143, -0.5123020416819081, 19246000000, 
-0.12380369705128093, -0.27986330118543, -0.5117565393265351, 19251000000, 
0.05949748977024149, -0.17283408330274383, -0.5122346925207475, 19256000000, 
-0.06343815140743725, -0.29167392525860664, -0.5123111069814721, 19261000000, 
-0.07479335723501218, -0.19703982427885852, -0.5120915138028943, 19267000000, 
-0.007885506260478604, -0.30432911743535357, -0.5124843566567663, 19272000000, 
-0.09338008407864415, -0.27413029342775763, -0.5120752235691635, 19277000000, 
0.08698446103945325, -0.23068495383493004, -0.5121624364921674, 19283000000, 
0.004754449513169686, -0.3215748939266612, -0.5121938424394255, 19288000000, 
-0.1494432869706677, -0.30828486257944543, -0.5107961605364221, 19293000000, 
-0.026326277717062307, -0.1566319477528712, -0.5112394490171637, 19298000000, 
-0.04191345834132841, -0.28979578628558106, -0.5105301958029624, 19304000000, 
-0.15596331730937774, -0.2919713923695257, -0.5091853156400269, 19309000000, 
-0.0031403421504374845, -0.17998308981965683, -0.510362559363146, 19314000000, 
-0.024041871931337284, -0.2483844477074811, -0.5096850994156342, 19319000000, 
-0.07953643582968087, -0.21000658937703315, -0.5093959764765735, 19324000000, 
0.045310194972949, -0.2828496199009104, -0.5093075654539866, 19330000000, 
-0.13473830580812515, -0.3196979095884597, -0.5086759580292589, 19335000000, 
0.017433010573602525, -0.1929446761836126, -0.5088940636501758, 19340000000, 
-0.047732643186241444, -0.28303728540687373, -0.5085388821866402, 19345000000, 
0.05725217236199818, -0.18446246400108146, -0.5081777056702124, 19350000000, 
0.014524263279434856, -0.2719622874974816, -0.5078666908138856, 19355000000, 
-0.09176788390758434, -0.33961037699676827, -0.5078871736735425, 19360000000, 
-0.05098859398908108, -0.09583143919993942, -0.5075684159998437, 19365000000, 
0.023787507420060895, -0.2778331632855727, -0.5080442159107055, 19370000000, 
-0.08413055235184769, -0.345366402440735, -0.5070474164075839, 19375000000, 
-0.03422287074802865, -0.19109979080495038, -0.5071826206337863, 19380000000, 
-0.01724492799984459, -0.27129047210221297, -0.5071356418500808, 19385000000, 
-0.18315319789478662, -0.298578421544476, -0.5065644923132129, 19390000000, 
0.04444072991461281, -0.1833985820422644, -0.5067662515722179, 19395000000, 
-0.008351152914851978, -0.287534049728007, -0.5068629299751047, 19401000000, 
-0.13912842756033053, -0.16688317609569187, -0.5058585533276898, 19406000000, 
0.004747852514828007, -0.2933173996122432, -0.5070096797128407, 19411000000, 
0.01549995901007246, -0.4155498192833888, -0.5066522023379815, 19416000000, 
0.032415248616997, -0.11823111493424106, -0.5068670078158396, 19421000000, 
-0.008740162958754958, -0.29385000901062946, -0.5070082118398472, 19426000000, 
-0.08120300298323231, -0.324525078370046, -0.5066349042508912, 19431000000, 
-0.07494713234450681, -0.13696782866076657, -0.5064956901608983, 19436000000, 
-0.014960115896952546, -0.3181946186893827, -0.5073138919363721, 19441000000, 
-0.1253270616410142, -0.2704886744450002, -0.5069057386932783, 19446000000, 
-0.004569264640256735, -0.20505097858075688, -0.5068764093345397, 19451000000, 
-0.04727363452587223, -0.2759259860231192, -0.5074990266136183, 19456000000, 
-0.1466044874031083, -0.2323527384534449, -0.5066903752325068, 19462000000, 
0.017377013903833578, -0.20845776757839832, -0.5076555926802135, 19467000000, 
-0.10301341872664811, -0.2514817560563396, -0.5079200362952564, 19472000000, 
-0.042799672240450504, -0.1802631576709416, -0.507954897345224, 19477000000, 
0.009991270951940958, -0.30056206919207823, -0.5082157445267235, 19482000000, 
0.09140701249080903, -0.3354197181264313, -0.5086277777347694, 19487000000, 
